General.Time (millis),MAX17048.Voltage (V),MAX17048.State Of Charge (%),MAX17048.Change Rate (%/hr),ISM330.Accel X (milli-g),ISM330.Accel Y (milli-g),ISM330.Accel Z (milli-g),ISM330.Gyro X (milli-dps),ISM330.Gyro Y (milli-dps),ISM330.Gyro Z (milli-dps),ISM330.Temperature (C),MMC5983.X Field (Gauss),MMC5983.Y Field (Gauss),MMC5983.Z Field (Gauss),MMC5983.Temperature (C)
88498,4.294,113.953,-3.120,2.928,-27.694,1015.772,297.500,-630.000,-332.500,24.238,-0.04938,0.34387,0.38074,23
88567,4.293,113.953,-3.120,2.806,-27.816,1016.016,472.500,-595.000,-332.500,24.234,-0.04932,0.34412,0.38074,24
88602,4.293,113.953,-3.120,2.684,-27.816,1016.016,402.500,-595.000,-315.000,24.242,-0.04938,0.34406,0.38037,24
88626,4.293,113.953,-3.120,2.806,-27.816,1016.016,350.000,-577.500,-350.000,24.297,-0.04968,0.34430,0.38037,24
88655,4.293,113.953,-3.120,2.806,-27.694,1015.894,297.500,-612.500,-315.000,24.285,-0.04889,0.34387,0.38031,24
88679,4.293,113.953,-3.120,2.806,-27.694,1015.894,420.000,-612.500,-297.500,24.242,-0.04944,0.34387,0.38086,24
88714,4.293,113.953,-3.120,2.806,-27.694,1015.894,367.500,-542.500,-350.000,24.281,-0.04944,0.34406,0.38080,24
88738,4.293,113.953,-3.120,2.806,-27.572,1016.016,367.500,-560.000,-297.500,24.316,-0.04932,0.34412,0.38104,24
88767,4.293,113.953,-3.120,2.806,-27.572,1016.016,402.500,-577.500,-332.500,24.297,-0.04999,0.34418,0.38007,24
88791,4.293,113.953,-3.120,2.928,-27.572,1016.016,350.000,-577.500,-280.000,24.305,-0.04974,0.34406,0.38080,25
88820,4.293,113.953,-3.120,2.928,-27.572,1015.894,367.500,-560.000,-332.500,24.262,-0.04962,0.34430,0.38049,25
88844,4.293,113.953,-3.120,2.928,-27.572,1016.016,297.500,-630.000,-367.500,24.273,-0.04938,0.34406,0.38049,25
88879,4.293,113.953,-3.120,2.928,-27.572,1015.894,420.000,-577.500,-262.500,24.297,-0.04950,0.34387,0.38031,25
88903,4.293,113.953,-3.120,2.806,-27.572,1015.894,420.000,-560.000,-297.500,24.301,-0.04956,0.34412,0.38043,25
88932,4.293,113.953,-3.120,2.928,-27.572,1015.894,332.500,-507.500,-262.500,24.301,-0.04950,0.34430,0.38013,25
88956,4.293,113.953,-3.120,2.806,-27.572,1015.772,315.000,-577.500,-350.000,24.309,-0.04974,0.34418,0.38092,25
88991,4.293,113.953,-3.120,2.928,-27.572,1015.772,332.500,-595.000,-332.500,24.312,-0.04932,0.34454,0.38055,25
89015,4.293,113.953,-3.120,2.928,-27.328,1015.772,420.000,-542.500,-315.000,24.340,-0.04932,0.34418,0.38080,25
89044,4.293,113.953,-2.288,2.928,-27.328,1015.894,385.000,-560.000,-332.500,24.340,-0.04926,0.34424,0.37988,25
89068,4.293,113.953,-2.288,2.928,-27.328,1015.772,350.000,-595.000,-350.000,24.297,-0.04968,0.34381,0.37994,25
89105,4.293,113.953,-2.288,3.050,-27.450,1015.772,437.500,-542.500,-332.500,24.270,-0.04907,0.34406,0.38092,25
89129,4.293,113.953,-2.288,3.172,-27.572,1015.894,262.500,-542.500,-350.000,24.305,-0.04950,0.34406,0.38049,25
89158,4.293,113.953,-2.288,3.050,-27.328,1016.016,350.000,-507.500,-297.500,24.297,-0.04962,0.34424,0.38000,25
89182,4.293,113.953,-2.288,3.172,-27.206,1016.016,437.500,-542.500,-332.500,24.305,-0.04950,0.34424,0.38062,25
89211,4.293,113.953,-2.288,3.050,-27.206,1015.894,385.000,-577.500,-385.000,24.297,-0.04895,0.34436,0.38019,25
89235,4.293,113.953,-2.288,3.172,-27.328,1015.772,350.000,-560.000,-297.500,24.305,-0.04938,0.34424,0.38104,25
89270,4.293,113.953,-2.288,3.050,-27.328,1015.772,350.000,-577.500,-350.000,24.285,-0.04944,0.34424,0.38086,25
89294,4.293,113.953,-2.288,3.172,-27.328,1015.772,367.500,-560.000,-385.000,24.266,-0.04938,0.34424,0.38104,25
89323,4.293,113.953,-2.288,3.172,-27.450,1015.528,350.000,-647.500,-315.000,24.348,-0.04932,0.34430,0.38049,25
89347,4.293,113.953,-2.288,3.172,-27.206,1015.528,315.000,-507.500,-332.500,24.332,-0.04926,0.34436,0.38074,25
89382,4.293,113.953,-2.288,3.172,-27.328,1015.406,437.500,-542.500,-350.000,24.281,-0.04968,0.34436,0.38019,25
89406,4.293,113.953,-2.288,3.172,-27.206,1015.528,367.500,-595.000,-262.500,24.285,-0.04993,0.34418,0.38123,25
89435,4.293,113.953,-2.288,3.294,-27.328,1015.772,385.000,-577.500,-297.500,24.320,-0.04950,0.34430,0.38068,25
89459,4.293,113.953,-2.288,3.416,-27.328,1015.650,367.500,-700.000,-280.000,24.320,-0.04999,0.34375,0.38116,25
89493,4.293,113.953,-2.288,3.416,-27.084,1015.772,735.000,-857.500,-350.000,24.297,-0.04938,0.34406,0.38025,25
89517,4.293,113.953,-2.288,3.538,-27.084,1015.528,1015.000,-1155.000,-245.000,24.305,-0.04913,0.34448,0.38086,25
89546,4.294,113.953,-2.288,5.002,-26.230,1015.284,612.500,-822.500,1015.000,24.316,-0.04944,0.34412,0.38062,26
89570,4.294,113.953,-2.288,3.660,-26.840,1015.162,437.500,-525.000,-367.500,24.348,-0.04932,0.34393,0.38080,26
89605,4.294,113.953,-2.288,6.710,-25.864,1014.918,542.500,-577.500,-4900.000,24.301,-0.04987,0.34424,0.38074,25
89629,4.294,113.953,-2.288,3.904,-26.596,1014.796,245.000,-455.000,-1977.500,24.348,-0.04962,0.34430,0.38110,26
89658,4.294,113.953,-2.288,3.782,-26.474,1014.796,385.000,-542.500,-332.500,24.371,-0.05042,0.34399,0.38086,26
89682,4.294,113.953,-2.288,3.904,-26.474,1014.796,665.000,-525.000,-245.000,24.309,-0.05035,0.34436,0.38116,26
89711,4.294,113.953,-2.288,3.904,-26.230,1014.796,612.500,-472.500,35.000,24.316,-0.04932,0.34369,0.38080,26
89735,4.294,113.953,-2.288,3.538,-23.668,1014.674,770.000,-542.500,5425.000,24.379,-0.04895,0.34131,0.38141,26
89770,4.294,113.953,-2.288,4.148,-26.108,1020.164,39830.000,-350.000,2642.500,24.316,-0.04919,0.33398,0.38672,26
89794,4.291,113.953,-2.288,1.708,-20.862,1020.164,44135.000,752.500,14682.500,24.355,-0.04730,0.32709,0.39099,26
89823,4.291,113.953,-2.288,3.538,-14.884,1015.162,19145.000,-245.000,11935.000,24.316,-0.04590,0.32416,0.39227,26
89847,4.291,113.953,-2.288,3.782,-10.004,1013.210,3657.500,-402.500,8190.000,24.316,-0.04449,0.32385,0.39264,26
89882,4.291,113.953,-2.288,3.538,-1.586,1013.454,5197.500,-455.000,12197.500,24.348,-0.04364,0.32269,0.39270,26
89906,4.291,113.953,-2.288,4.636,2.196,1013.088,2975.000,-455.000,6125.000,24.285,-0.04291,0.32227,0.39331,26
89935,4.291,113.953,-2.288,6.466,3.782,1012.478,-1575.000,-682.500,-3307.500,24.340,-0.04272,0.32263,0.39252,26
89959,4.291,113.953,-2.288,6.710,9.028,1013.210,1960.000,-472.500,-245.000,24.324,-0.04279,0.32214,0.39362,26
89994,4.291,113.953,-2.288,6.588,13.420,1013.576,3465.000,-595.000,507.500,24.355,-0.04266,0.32159,0.39337,26
90018,4.291,113.953,-2.288,4.636,16.104,1012.844,577.500,-560.000,-577.500,24.285,-0.04291,0.32147,0.39398,26
90047,4.293,113.953,-2.288,5.368,18.910,1012.356,-3762.500,-437.500,1225.000,24.340,-0.04254,0.32239,0.39221,26
90071,4.293,113.953,-2.288,5.612,20.374,1012.722,-2537.500,-297.500,1155.000,24.324,-0.04211,0.32275,0.39374,26
90105,4.293,113.953,-2.288,5.368,20.252,1012.600,-3482.500,-560.000,-2572.500,24.379,-0.04279,0.32385,0.39233,26
90129,4.293,113.953,-2.288,5.368,20.374,1012.722,-3867.500,-437.500,-4742.500,24.316,-0.04285,0.32452,0.39258,26
90164,4.293,113.953,-2.288,4.636,22.448,1012.478,-6965.000,-577.500,-3815.000,24.316,-0.04407,0.32666,0.39124,26
90188,4.293,113.953,-2.288,5.612,25.132,1011.746,-15697.500,-770.000,-18742.500,24.340,-0.04626,0.32941,0.39062,26
90217,4.293,113.953,-2.288,6.710,19.642,1012.234,-16852.500,-560.000,-23292.500,24.355,-0.04816,0.33167,0.38928,26
90241,4.293,113.953,-2.288,3.416,17.568,1014.186,-490.000,-630.000,-1977.500,24.336,-0.04724,0.33148,0.38977,26
90276,4.294,113.953,-2.288,3.416,15.128,1014.064,-315.000,-472.500,-280.000,24.395,-0.04785,0.33154,0.38885,26
90300,4.294,113.953,-2.288,3.660,13.908,1013.820,-1330.000,-525.000,-280.000,24.348,-0.04767,0.33234,0.38867,26
90329,4.294,113.953,-2.288,3.904,12.200,1012.844,-9257.500,-647.500,-472.500,24.301,-0.04810,0.33478,0.38727,26
90353,4.294,113.953,-2.288,4.026,9.760,1012.722,-12302.500,-805.000,-595.000,24.363,-0.04816,0.33618,0.38690,26
90388,4.294,113.953,-2.288,2.928,7.564,1014.308,-490.000,-332.500,5285.000,24.309,-0.04633,0.33636,0.38629,26
90412,4.294,113.953,-2.288,0.122,9.638,1013.698,-3465.000,-105.000,25742.500,24.301,-0.04407,0.33777,0.38507,26
90441,4.294,113.953,-2.288,5.490,-3.050,1013.210,-9030.000,-245.000,-87.500,24.324,-0.04486,0.33813,0.38422,26
90465,4.294,113.953,-2.288,8.174,-27.450,1014.430,1312.500,35.000,-42070.000,24.270,-0.04907,0.33856,0.38458,26
90499,4.294,113.953,-2.288,4.392,-19.032,1014.918,3272.500,-70.000,-38430.000,24.285,-0.05286,0.33679,0.38489,26
90523,4.294,113.953,-2.288,-2.196,-14.884,1015.040,4847.500,-1435.000,-17342.500,24.320,-0.05408,0.33728,0.38562,26
90552,4.293,113.953,-2.288,-6.100,-16.348,1015.040,5390.000,-752.500,-22435.000,24.281,-0.05609,0.33521,0.38458,26
90576,4.293,113.953,-2.288,7.320,-6.588,1013.454,-2677.500,-455.000,-24990.000,24.273,-0.05835,0.33649,0.38483,26
90605,4.293,113.953,-2.288,5.856,-3.050,1013.820,-7122.500,-1207.500,-15277.500,24.309,-0.05878,0.33716,0.38446,26
90629,4.293,113.953,-2.288,6.466,-9.028,1014.430,770.000,-682.500,-16590.000,24.316,-0.06079,0.33643,0.38477,26
90663,4.293,113.953,-2.288,3.172,-8.296,1014.552,2555.000,-280.000,-17430.000,24.285,-0.06122,0.33600,0.38507,26
90687,4.293,113.953,-2.288,-2.806,-8.540,1015.040,10447.500,18497.500,-297.500,24.293,-0.05554,0.33313,0.38702,26
90716,4.293,113.953,-2.288,-17.690,-6.344,1038.708,23152.500,53130.000,-9257.500,24.297,-0.04999,0.32428,0.39240,26
90740,4.293,113.953,-2.288,-37.332,10.004,1080.798,63577.500,30800.000,14962.500,24.340,-0.04980,0.31274,0.40045,26
90775,4.293,113.953,-2.288,-6.588,3.660,1012.722,42245.000,-24710.000,15557.500,24.262,-0.05701,0.30090,0.40515,26
90799,4.293,113.953,-2.288,-15.982,20.130,1031.754,59727.500,-53935.000,6037.500,24.312,-0.06647,0.29126,0.40955,26
90828,4.293,113.953,-2.288,-19.520,23.790,1012.966,17202.500,-18515.000,9765.000,24.309,-0.06848,0.28857,0.41028,26
90852,4.293,113.953,-2.288,-24.156,24.644,980.636,-11760.000,13475.000,5915.000,24.277,-0.06531,0.29205,0.40948,26
90889,4.293,113.953,-2.288,-2.684,45.506,1007.232,-9590.000,-9152.500,11725.000,24.336,-0.06775,0.29498,0.40753,26
90913,4.293,113.953,-2.288,7.686,45.872,1015.528,-18795.000,-34842.500,-5110.000,24.297,-0.07483,0.29889,0.40497,26
90942,4.293,113.953,-2.288,-21.228,41.236,1052.006,-19180.000,-45867.500,36120.000,24.324,-0.07739,0.29755,0.40594,26
90966,4.293,113.953,-2.288,-29.402,44.896,1141.920,40075.000,12792.500,16082.500,24.336,-0.07129,0.28888,0.41156,26
91002,4.293,113.953,-2.288,-13.420,35.624,1267.336,98787.500,46585.000,227.500,24.348,-0.05933,0.26050,0.42383,26
91026,4.293,113.953,-2.288,11.224,36.600,1346.026,149065.000,35595.000,-8522.500,24.324,-0.05347,0.22705,0.43420,26
91055,4.293,113.953,-2.288,36.600,56.608,1402.268,206920.000,36732.500,15102.500,24.355,-0.04626,0.18164,0.44421,26
91079,4.293,113.953,-2.288,59.536,61.732,1320.040,194250.000,28507.500,8785.000,24.277,-0.04169,0.14801,0.44855,26
91114,4.293,113.953,-2.288,107.970,61.244,982.344,84612.500,37030.000,-21192.500,24.305,-0.03223,0.13751,0.44934,26
91138,4.293,113.953,-2.288,110.776,40.748,617.076,-108675.000,27230.000,-28087.500,24.324,-0.02991,0.16614,0.44641,26
91167,4.293,113.953,-2.288,105.286,61.488,311.832,-270550.000,-6335.000,-16940.000,24.316,-0.03088,0.23248,0.43268,26
91191,4.293,113.953,-2.288,107.604,75.030,190.320,-307492.500,-21665.000,-46130.000,24.324,-0.03680,0.28235,0.41571,26
91226,4.293,113.953,-2.288,48.678,18.788,434.320,-144322.500,-9415.000,-71680.000,24.328,-0.04401,0.28296,0.41486,26
91250,4.293,113.953,-2.288,-74.176,56.364,1158.390,307125.000,6247.500,-29172.500,24.270,-0.04144,0.21008,0.43835,26
91279,4.294,113.953,-2.288,-155.794,125.538,1544.032,404057.500,50820.000,3202.500,24.281,-0.03058,0.14380,0.44836,26
91303,4.294,113.953,-2.288,-146.644,232.410,1600.518,103985.000,38517.500,57172.500,24.312,-0.02057,0.13013,0.45001,26
91332,4.294,113.953,-2.288,-17.690,196.542,1372.500,46567.500,87920.000,9975.000,24.297,-0.00342,0.12738,0.44843,26
91356,4.294,113.953,-2.288,73.810,117.364,915.854,-143255.000,38360.000,210.000,24.246,-0.00043,0.16748,0.44525,26
91391,4.294,113.953,-2.288,33.062,42.456,303.780,-288085.000,-56210.000,4025.000,24.281,-0.01282,0.24628,0.42834,26
91415,4.294,113.953,-2.288,-26.352,15.982,147.376,-305882.500,-55527.500,-12495.000,24.258,-0.02759,0.29395,0.41101,26
91444,4.294,113.953,-2.288,-53.924,-48.434,428.220,-169242.500,-102672.500,-24185.000,24.273,-0.04480,0.28796,0.41187,26
91468,4.294,113.953,-2.288,-53.680,-35.380,1171.932,265020.000,-33635.000,-11445.000,24.293,-0.04578,0.21576,0.43634,26
91502,4.294,113.953,-2.288,-70.394,111.264,1612.230,446512.500,91385.000,-3185.000,24.273,-0.02502,0.13257,0.44916,26
91526,4.293,113.953,-2.288,-41.846,152.256,1435.696,-158270.000,55055.000,10255.000,24.227,-0.01477,0.16986,0.44556,26
91555,4.293,113.953,-2.288,31.598,93.940,876.936,-287647.500,47687.500,8767.500,24.258,-0.00513,0.23682,0.43060,26
91579,4.293,113.953,-2.288,47.824,56.364,583.892,-313425.000,8575.000,-8680.000,24.234,-0.01178,0.29590,0.40839,26
91614,4.293,113.953,-2.288,-6.222,-21.472,446.520,-224385.000,-91087.500,-45990.000,24.258,-0.03284,0.33405,0.38916,26
91638,4.293,113.953,-2.288,-112.728,-88.084,936.838,50767.500,-3377.500,-13895.000,24.266,-0.02600,0.30505,0.40363,26
91667,4.293,113.953,-2.288,-171.776,-61.000,1421.788,340847.500,93100.000,36155.000,24.234,-0.00092,0.24121,0.42786,26
91691,4.293,113.953,-2.288,-129.930,22.448,1364.936,85540.000,112595.000,3972.500,24.227,0.01520,0.24463,0.42566,26
91726,4.293,113.953,-2.288,-42.334,85.644,1045.296,-173810.000,-1312.500,52.500,24.242,0.01611,0.28113,0.41083,26
91750,4.293,113.953,-2.288,-21.350,84.058,915.244,-83965.000,-25952.500,-14945.000,24.234,0.00830,0.29059,0.40894,26
91779,4.291,113.953,-2.288,-33.428,55.754,816.058,-32865.000,-53025.000,-38972.500,24.234,-0.00525,0.29742,0.40680,26
91803,4.291,113.953,-2.288,-68.930,33.672,859.856,-14157.500,-38412.500,-34562.500,24.234,-0.01251,0.29816,0.40735,26
91838,4.291,113.953,-2.288,-108.458,30.622,949.038,-11235.000,-40530.000,-2240.000,24.234,-0.02283,0.30396,0.40533,26
91862,4.291,113.953,-2.288,-148.840,25.010,959.896,-57627.500,-36732.500,20597.500,24.250,-0.02588,0.31433,0.40057,26
91891,4.291,113.953,-2.288,-133.834,35.136,1003.572,-41352.500,-21507.500,5617.500,24.234,-0.02893,0.32159,0.39685,26
91915,4.291,113.953,-2.288,-115.168,41.968,1037.122,-13807.500,-28507.500,21595.000,24.219,-0.03186,0.32343,0.39697,26
91951,4.291,113.953,-2.288,-86.376,31.110,1037.488,-17780.000,-23100.000,17622.500,24.242,-0.03503,0.32800,0.39453,26
91975,4.291,113.953,-2.288,-69.296,24.034,1019.676,-15837.500,-13422.500,-420.000,24.242,-0.03925,0.33124,0.39349,26
92004,4.291,113.953,-2.288,-48.312,24.034,1035.292,-490.000,-48160.000,-10850.000,24.234,-0.04889,0.33185,0.39417,26
92028,4.294,113.953,-2.288,-46.726,13.176,1045.174,10535.000,-43207.500,5057.500,24.250,-0.05536,0.33112,0.39569,26
92057,4.294,113.953,-2.288,-33.062,8.174,1044.320,-1522.500,-48685.000,-4060.000,24.227,-0.06531,0.33459,0.39417,26
92081,4.294,113.953,-2.288,-21.350,0.244,1023.336,-12862.500,-58502.500,-21980.000,24.242,-0.07556,0.33813,0.39246,26
92116,4.294,113.953,-2.288,-32.940,-8.784,1031.388,12057.500,20370.000,-23730.000,24.227,-0.07275,0.33295,0.39435,26
92140,4.294,113.953,-2.288,-24.522,-3.660,1030.656,-5460.000,18270.000,-6405.000,24.258,-0.07184,0.33398,0.39532,26
92169,4.294,113.953,-2.288,6.222,6.100,1037.000,16030.000,-3307.500,10937.500,24.242,-0.07001,0.33081,0.39697,26
92193,4.294,113.953,-2.288,9.516,7.076,1028.948,1872.500,8155.000,10325.000,24.258,-0.06750,0.33331,0.39551,26
92228,4.294,113.953,-2.288,20.496,7.320,1026.630,-34632.500,5302.500,12547.500,24.266,-0.06555,0.34106,0.39240,26
92252,4.294,113.953,-2.288,23.668,5.612,1033.096,13125.000,-13667.500,4147.500,24.258,-0.06812,0.33734,0.39471,26
92281,4.291,113.953,-2.288,24.522,1.952,1023.824,11917.500,-4392.500,-10622.500,24.242,-0.06927,0.33704,0.39606,26
92305,4.291,113.953,-2.288,25.376,2.562,1019.310,-3587.500,2852.500,-12460.000,24.273,-0.06769,0.33807,0.39728,26
92340,4.291,113.953,-2.288,26.352,-4.026,1008.818,-6055.000,21472.500,-7700.000,24.273,-0.06335,0.33948,0.39667,26
92364,4.291,113.953,-2.288,23.302,-1.952,1012.356,-3675.000,15312.500,630.000,24.227,-0.06024,0.34088,0.39728,26
92393,4.291,113.953,-2.288,22.326,-7.198,1009.306,-4497.500,21875.000,-4935.000,24.305,-0.05658,0.34094,0.39581,26
92417,4.291,113.953,-2.288,15.738,-7.320,1023.092,-3745.000,-910.000,1767.500,24.242,-0.05664,0.34131,0.39581,26
92451,4.291,113.953,-2.288,23.790,-3.416,1020.408,7892.500,17.500,8382.500,24.266,-0.05536,0.34015,0.39532,26
92475,4.291,113.953,-2.288,18.910,-1.708,1019.798,3832.500,-17.500,10377.500,24.250,-0.05450,0.34009,0.39667,26
92504,4.291,113.953,-2.288,14.884,-2.440,1019.188,-297.500,-665.000,9695.000,24.250,-0.05420,0.34070,0.39526,26
92528,4.294,113.953,-2.288,9.882,-3.660,1018.578,-8330.000,-840.000,1190.000,24.266,-0.05334,0.34204,0.39587,26
92557,4.294,113.953,-2.288,9.272,-3.660,1017.480,-1627.500,805.000,4620.000,24.273,-0.05237,0.34198,0.39667,26
92581,4.294,113.953,-2.288,9.150,-6.954,1017.114,-280.000,-682.500,2310.000,24.242,-0.05194,0.34222,0.39624,26
92616,4.294,113.953,-2.288,9.028,-13.176,1016.016,2677.500,140.000,-2310.000,24.266,-0.05261,0.34192,0.39514,26
92640,4.294,113.953,-2.288,8.540,-12.688,1015.894,2415.000,-665.000,-1277.500,24.281,-0.05219,0.34131,0.39587,26
92669,4.294,113.953,-2.288,5.124,-10.736,1015.772,560.000,-210.000,-122.500,24.273,-0.05212,0.34113,0.39563,26
92693,4.294,113.953,-2.288,3.904,-9.516,1015.650,595.000,1540.000,350.000,24.266,-0.05261,0.34137,0.39563,26
92728,4.294,113.953,-2.288,5.368,-9.272,1015.528,-1767.500,-577.500,-1505.000,24.281,-0.05255,0.34235,0.39508,26
92752,4.294,113.953,-2.288,6.954,-8.296,1015.284,-1120.000,-577.500,-770.000,24.258,-0.05334,0.34265,0.39514,26
92781,4.293,113.953,-2.288,12.688,-8.296,1015.284,-1190.000,-665.000,2030.000,24.242,-0.05316,0.34271,0.39496,26
92805,4.293,113.953,-2.288,7.320,-10.858,1015.040,1662.500,-507.500,-840.000,24.293,-0.05304,0.34277,0.39587,26
92841,4.293,113.953,-2.288,1.708,-11.468,1014.796,2275.000,-385.000,-2100.000,24.281,-0.05304,0.34186,0.39563,26
92865,4.293,113.953,-2.288,1.830,-10.858,1014.308,8785.000,52.500,-280.000,24.266,-0.05334,0.34039,0.39703,26
92894,4.293,113.953,-2.288,2.074,-10.126,1014.308,12792.500,227.500,-280.000,24.277,-0.05341,0.33740,0.39825,26
92918,4.293,113.953,-2.288,5.246,-7.320,1014.064,17430.000,717.500,1610.000,24.297,-0.05310,0.33569,0.40009,26
92953,4.293,113.953,-2.288,4.392,-1.464,1014.674,8557.500,-350.000,770.000,24.281,-0.05267,0.33423,0.40118,26
92977,4.293,113.953,-2.288,0.854,-1.708,1014.918,-1680.000,-542.500,542.500,24.312,-0.05249,0.33521,0.40118,26
93006,4.293,113.953,-2.288,0.732,0.244,1014.796,-4007.500,-735.000,-227.500,24.301,-0.05200,0.33636,0.39917,26
93030,4.293,113.953,-2.288,0.854,1.464,1014.796,-5862.500,-927.500,-350.000,24.309,-0.05231,0.33667,0.39905,26
93059,4.293,113.953,-2.288,1.098,4.880,1014.552,-7350.000,-770.000,3797.500,24.309,-0.05182,0.33801,0.39685,26
93083,4.293,113.953,-2.288,-0.122,5.246,1014.796,-9992.500,-892.500,2170.000,24.332,-0.05225,0.33911,0.39655,26
93118,4.293,113.953,-2.288,-1.098,4.392,1014.674,-11112.500,-1225.000,875.000,24.273,-0.05273,0.34070,0.39514,26
93142,4.293,113.953,-2.288,1.464,0.732,1014.308,-3780.000,-595.000,2222.500,24.277,-0.05316,0.34045,0.39569,26
93171,4.293,113.953,-2.288,2.684,-0.732,1013.698,12740.000,332.500,4497.500,24.312,-0.05341,0.33801,0.39679,26
93195,4.293,113.953,-2.288,2.562,-1.952,1014.064,6142.500,-35.000,3885.000,24.309,-0.05353,0.33691,0.39838,26
93230,4.293,113.953,-2.288,2.440,-2.440,1014.186,665.000,-280.000,1802.500,24.305,-0.05298,0.33624,0.39929,26
93254,4.293,113.953,-2.288,2.318,-2.440,1014.796,-4725.000,-717.500,-35.000,24.355,-0.05383,0.33673,0.40027,26
93283,4.293,113.953,-2.288,2.318,-1.952,1014.430,4077.500,-262.500,-280.000,24.270,-0.05396,0.33551,0.40039,26
93307,4.293,113.953,-2.288,2.318,0.000,1014.064,11357.500,210.000,1400.000,24.332,-0.05359,0.33368,0.40198,26
93342,4.293,113.953,-2.288,2.074,0.976,1015.040,-4462.500,-700.000,-367.500,24.297,-0.05389,0.33533,0.40161,26
93366,4.293,113.953,-2.288,2.196,0.732,1014.796,-5460.000,-805.000,-1715.000,24.320,-0.05371,0.33502,0.40137,26
93395,4.293,113.953,-2.288,2.196,2.562,1014.308,7437.500,-157.500,-332.500,24.336,-0.05334,0.33447,0.40216,26
93419,4.293,113.953,-2.288,2.074,3.416,1014.430,2642.500,-332.500,-297.500,24.379,-0.05334,0.33521,0.40216,26
93453,4.293,113.953,-2.288,2.074,4.392,1014.552,-3465.000,-630.000,-280.000,24.340,-0.05292,0.33502,0.40125,26
93477,4.293,113.953,-2.288,2.074,4.392,1013.698,14140.000,140.000,0.000,24.316,-0.05273,0.33301,0.40302,26
93506,4.293,113.953,-2.288,1.952,5.856,1013.820,14927.500,227.500,-297.500,24.379,-0.05316,0.33020,0.40381,26
93530,4.293,113.953,-2.288,1.830,8.296,1014.064,9555.000,-70.000,-350.000,24.309,-0.05304,0.32916,0.40515,26
93559,4.293,113.953,-2.288,1.830,11.102,1013.698,16607.500,210.000,35.000,24.301,-0.05304,0.32574,0.40643,26
93583,4.293,113.953,-2.288,1.708,14.762,1013.942,14735.000,105.000,2187.500,24.340,-0.05231,0.32660,0.40613,26
93618,4.293,113.953,-2.288,1.586,17.568,1014.796,-16257.500,-1242.500,-280.000,24.355,-0.05145,0.32922,0.40411,26
93642,4.293,113.953,-2.288,1.464,18.422,1013.820,-2800.000,-577.500,-402.500,24.340,-0.05231,0.32928,0.40393,26
93671,4.293,113.953,-2.288,1.464,19.032,1013.576,5547.500,-245.000,-262.500,24.324,-0.05176,0.32874,0.40399,26
93695,4.293,113.953,-2.288,1.464,20.008,1013.820,1085.000,-437.500,-315.000,24.379,-0.05206,0.32837,0.40442,26
93730,4.293,113.953,-2.288,1.342,20.984,1013.820,1365.000,-420.000,-332.500,24.402,-0.05157,0.32812,0.40381,26
93754,4.293,113.953,-2.288,1.342,21.350,1013.576,5425.000,-210.000,-262.500,24.355,-0.05164,0.32709,0.40533,26
93785,4.293,113.953,-2.288,1.342,23.058,1013.820,612.500,-542.500,-385.000,24.387,-0.05127,0.32800,0.40442,26
93809,4.293,113.953,-2.288,1.342,24.034,1014.308,-16572.500,-1295.000,-402.500,24.363,-0.05170,0.33081,0.40228,26
93844,4.293,113.953,-2.288,2.440,27.816,1013.820,-11025.000,-665.000,-1382.500,24.309,-0.05164,0.33405,0.40167,26
93868,4.293,113.953,-2.288,0.610,25.620,1013.576,-4935.000,-980.000,1890.000,24.301,-0.05115,0.33447,0.40234,26
93897,4.293,113.953,-2.288,1.342,19.032,1013.576,525.000,-315.000,-3692.500,24.395,-0.05096,0.33350,0.40192,26
93921,4.293,113.953,-2.288,1.586,16.348,1013.332,8627.500,-52.500,-1750.000,24.316,-0.05176,0.33331,0.40350,26
93950,4.293,113.953,-2.288,1.708,16.348,1013.820,-2187.500,-630.000,-350.000,24.363,-0.05121,0.33350,0.40216,26
93974,4.293,113.953,-2.288,1.464,16.104,1013.820,1330.000,-525.000,-385.000,24.340,-0.05133,0.33374,0.40289,26
94009,4.293,113.953,-2.288,1.464,15.860,1013.698,8977.500,-70.000,-297.500,24.422,-0.05145,0.33105,0.40369,26
94033,4.293,113.953,-2.288,1.464,16.592,1013.942,5915.000,-245.000,-315.000,24.332,-0.05157,0.33081,0.40454,26
94062,4.293,113.953,-2.288,1.464,17.568,1014.064,-665.000,-472.500,-332.500,24.379,-0.05139,0.33075,0.40405,26
94086,4.293,113.953,-2.288,1.220,18.056,1014.064,1907.500,-472.500,-280.000,24.355,-0.05151,0.33124,0.40436,26
94121,4.293,113.953,-2.288,1.464,11.956,1014.186,-2747.500,-1312.500,-7735.000,24.402,-0.05249,0.33069,0.40326,26
94145,4.293,113.953,-2.288,1.464,15.128,1014.308,175.000,-332.500,-8417.500,24.395,-0.05286,0.33020,0.40442,26
94174,4.293,113.953,-2.288,1.220,20.496,1013.454,14472.500,210.000,-105.000,24.387,-0.05255,0.32745,0.40558,26
94198,4.293,113.953,-2.288,1.342,24.766,1013.576,16415.000,210.000,5967.500,24.332,-0.05139,0.32605,0.40662,26
94233,4.293,113.953,-2.288,1.220,24.888,1013.942,507.500,-367.500,3465.000,24.340,-0.05109,0.32672,0.40613,26
94257,4.293,113.953,-2.288,1.220,25.132,1014.064,-7892.500,-857.500,-367.500,24.422,-0.05127,0.32825,0.40625,26
94411,4.291,113.953,-2.288,1.220,29.280,1013.210,297.500,-560.000,-3185.000,24.395,-0.05170,0.32452,0.40668,26
94435,4.291,113.953,-2.288,1.342,30.988,1012.844,6702.500,-245.000,-420.000,24.387,-0.05157,0.32202,0.40900,26
94783,4.291,113.953,-2.288,0.244,61.000,1010.892,3185.000,-420.000,-332.500,24.445,-0.05096,0.31219,0.41284,26
94807,4.291,113.953,-2.288,0.244,62.098,1011.014,-5652.500,-752.500,-437.500,24.398,-0.05090,0.31281,0.41241,26
94836,4.291,113.953,-2.288,0.122,62.952,1010.770,-3780.000,-682.500,-437.500,24.449,-0.05096,0.31354,0.41144,26
94860,4.291,113.953,-2.288,0.122,62.952,1010.526,1820.000,-472.500,-297.500,24.422,-0.05072,0.31281,0.41199,26
94889,4.291,113.953,-2.288,0.244,63.318,1010.526,-647.500,-525.000,-350.000,24.414,-0.05151,0.31390,0.41217,26
94913,4.291,113.953,-2.288,0.122,63.684,1010.892,-5337.500,-682.500,-402.500,24.422,-0.05109,0.31476,0.41113,26
94948,4.291,113.953,-2.288,0.244,63.196,1010.648,-5600.000,-752.500,-332.500,24.430,-0.05115,0.31580,0.41040,26
94972,4.291,113.953,-2.288,0.244,62.220,1010.526,1627.500,-472.500,-297.500,24.406,-0.05121,0.31604,0.41150,26
95001,4.291,113.953,-2.288,0.244,61.610,1010.404,7962.500,-245.000,-315.000,24.426,-0.05151,0.31384,0.41138,26
95025,4.293,113.953,-2.288,0.244,61.732,1010.404,7945.000,-175.000,-297.500,24.445,-0.05151,0.31244,0.41211,26
95060,4.293,113.953,-2.288,0.244,62.708,1010.526,5407.500,-297.500,-280.000,24.414,-0.05090,0.31165,0.41260,26
95084,4.293,113.953,-2.288,0.122,63.806,1010.404,3622.500,-385.000,-245.000,24.445,-0.05096,0.31091,0.41290,26
95113,4.293,113.953,-2.288,0.244,64.904,1010.404,1137.500,-525.000,-297.500,24.422,-0.05103,0.31128,0.41260,26
95137,4.293,113.953,-2.288,0.122,65.880,1010.526,-700.000,-525.000,-332.500,24.414,-0.05133,0.31110,0.41339,26
95172,4.293,113.953,-2.288,0.122,66.612,1010.404,-1837.500,-560.000,-402.500,24.430,-0.05121,0.31201,0.41235,26
95196,4.293,113.953,-2.288,0.000,66.856,1010.282,-805.000,-525.000,-350.000,24.437,-0.05127,0.31128,0.41290,26
95225,4.293,113.953,-2.288,0.000,67.222,1010.160,3272.500,-385.000,-262.500,24.437,-0.05103,0.31128,0.41235,26
95249,4.293,113.953,-2.288,0.000,67.466,1010.160,4007.500,-420.000,-332.500,24.445,-0.05127,0.31042,0.41357,26
95278,4.294,113.953,-2.288,0.000,68.198,1010.038,5967.500,-245.000,-332.500,24.437,-0.05078,0.30914,0.41351,26
95302,4.294,113.953,-2.288,-0.244,69.296,1010.038,5652.500,-245.000,-280.000,24.430,-0.05103,0.30865,0.41492,26
95337,4.294,113.953,-2.288,-0.244,70.516,1010.038,-595.000,-577.500,-577.500,24.426,-0.05121,0.30847,0.41345,26
95361,4.294,113.953,-2.288,-0.244,71.248,1009.916,1557.500,-385.000,-2520.000,24.477,-0.05170,0.30853,0.41425,26
95390,4.294,113.953,-2.288,-0.244,72.834,1009.794,2257.500,-455.000,-297.500,24.437,-0.05157,0.30768,0.41364,26
95414,4.294,113.953,-2.288,-0.366,73.444,1009.916,-175.000,-525.000,-332.500,24.453,-0.05121,0.30823,0.41443,26
95449,4.294,113.953,-2.288,-0.366,74.176,1009.916,-4410.000,-735.000,-385.000,24.445,-0.05145,0.30957,0.41333,26
95473,4.294,113.953,-2.288,-0.488,73.932,1009.672,-1452.500,-560.000,-245.000,24.437,-0.05182,0.30963,0.41364,26
95502,4.294,113.953,-2.288,-0.366,73.810,1009.794,-1172.500,-542.500,-385.000,24.461,-0.05133,0.31018,0.41290,26
95526,4.294,113.953,-2.288,-0.366,73.566,1009.916,-1400.000,-525.000,-385.000,24.453,-0.05151,0.31079,0.41321,26
95561,4.294,113.953,-2.288,-0.488,73.078,1010.038,-4060.000,-770.000,-402.500,24.437,-0.05145,0.31146,0.41199,26
95585,4.294,113.953,-2.288,-0.610,72.712,1009.916,-1995.000,-647.500,-315.000,24.406,-0.05164,0.31183,0.41327,26
95614,4.294,113.953,-2.288,-0.610,71.980,1010.038,-262.500,-542.500,-315.000,24.477,-0.05170,0.31226,0.41205,26
95638,4.294,113.953,-2.288,-0.488,71.248,1010.282,-5110.000,-700.000,-367.500,24.461,-0.05194,0.31311,0.41205,26
95674,4.294,113.953,-2.288,-0.488,69.784,1010.404,-4865.000,-787.500,-350.000,24.445,-0.05164,0.31384,0.41138,26
95698,4.294,113.953,-2.288,-0.488,68.442,1010.282,682.500,-472.500,-297.500,24.461,-0.05182,0.31378,0.41174,26
95727,4.294,113.953,-2.288,-0.366,67.466,1010.526,525.000,-595.000,-262.500,24.469,-0.05115,0.31403,0.41058,26
95751,4.294,113.953,-2.288,10.614,66.612,1011.258,-11480.000,-927.500,2152.500,24.430,-0.05237,0.31775,0.41028,26
95780,4.291,113.953,-2.288,19.642,59.048,1011.746,-19407.500,-1382.500,-11620.000,24.422,-0.05365,0.32245,0.40570,26
95804,4.291,113.953,-2.288,13.420,62.708,1011.868,-25497.500,-2117.500,-6282.500,24.461,-0.05353,0.32648,0.40399,26
95839,4.291,113.953,-2.288,-5.612,56.852,1011.014,612.500,-420.000,157.500,24.461,-0.05292,0.32373,0.40448,26
95863,4.291,113.953,-2.288,-4.636,52.826,1010.404,26092.500,805.000,-245.000,24.477,-0.05347,0.31915,0.40753,26
95892,4.291,113.953,-2.288,-3.782,51.972,1010.892,25182.500,665.000,-367.500,24.484,-0.05341,0.31592,0.40912,26
95916,4.291,113.953,-2.288,-3.172,54.168,1011.990,-4060.000,-805.000,-945.000,24.453,-0.05304,0.31757,0.40875,26
95950,4.291,113.953,-2.288,-2.684,55.022,1012.112,-14577.500,-1207.500,-262.500,24.484,-0.05304,0.32159,0.40637,26
95974,4.291,113.953,-2.288,-2.074,58.316,1012.600,-22960.000,-1960.000,7175.000,24.484,-0.05249,0.32574,0.40485,26
96003,4.291,113.953,-2.288,-1.586,53.924,1012.356,-21490.000,-1295.000,6265.000,24.430,-0.05151,0.32861,0.40198,26
96027,4.291,113.953,-2.288,-0.854,50.508,1011.868,-10045.000,-962.500,7420.000,24.453,-0.05115,0.33008,0.40216,26
96062,4.291,113.953,-2.288,0.122,41.968,1011.990,-385.000,-157.500,-2152.500,24.469,-0.05115,0.33063,0.40192,26
96086,4.291,113.953,-2.288,-0.488,38.796,1011.990,2712.500,-490.000,-1627.500,24.453,-0.05115,0.33020,0.40228,26
96115,4.291,113.953,-2.288,-0.122,35.380,1012.356,1330.000,-472.500,-665.000,24.469,-0.05145,0.32971,0.40198,26
96139,4.291,113.953,-2.288,0.122,32.940,1012.356,6230.000,-595.000,-3482.500,24.461,-0.05176,0.32794,0.40363,26
96174,4.291,113.953,-2.288,0.488,33.184,1012.478,6002.500,-350.000,-2030.000,24.469,-0.05157,0.32715,0.40369,26
96198,4.291,113.953,-2.288,0.732,33.794,1012.600,490.000,-560.000,-350.000,24.461,-0.05206,0.32727,0.40436,26
96227,4.291,113.953,-2.288,0.732,33.916,1012.722,-1225.000,-525.000,17.500,24.461,-0.05170,0.32782,0.40289,26
96251,4.291,113.953,-2.288,0.976,33.184,1012.844,-3640.000,-665.000,-367.500,24.492,-0.05206,0.32849,0.40356,26
96280,4.293,113.953,-2.288,0.976,32.696,1012.844,-3797.500,-630.000,-402.500,24.492,-0.05200,0.32947,0.40283,26
96304,4.293,113.953,-2.288,1.098,31.842,1012.722,-70.000,-525.000,-332.500,24.445,-0.05164,0.32904,0.40350,26
96339,4.293,113.953,-2.288,1.098,31.110,1012.844,192.500,-472.500,-332.500,24.469,-0.05219,0.32898,0.40253,26
96363,4.293,113.953,-2.288,1.220,30.500,1012.844,-297.500,-490.000,-367.500,24.484,-0.05182,0.32947,0.40302,26
96392,4.293,113.953,-2.288,1.342,29.890,1012.844,525.000,-507.500,-350.000,24.453,-0.05157,0.32935,0.40216,26
96416,4.293,113.953,-2.288,1.464,29.402,1012.966,-227.500,-577.500,-350.000,24.437,-0.05170,0.32922,0.40326,26
96451,4.293,113.953,-2.288,1.464,28.914,1012.844,3780.000,-367.500,-315.000,24.484,-0.05115,0.32849,0.40356,26
96475,4.293,113.953,-2.288,1.586,28.792,1012.844,5477.500,-402.500,-297.500,24.469,-0.05170,0.32806,0.40417,26
96504,4.293,113.953,-2.288,1.464,29.524,1013.210,1382.500,-385.000,-332.500,24.469,-0.05182,0.32751,0.40356,26
96528,4.293,113.953,-2.288,1.464,29.646,1013.332,332.500,-455.000,-385.000,24.453,-0.05170,0.32782,0.40472,26
96563,4.293,113.953,-2.288,1.464,30.134,1013.088,4095.000,-332.500,-332.500,24.453,-0.05170,0.32642,0.40466,26
96587,4.293,113.953,-2.288,1.464,30.622,1013.088,7577.500,-140.000,-402.500,24.477,-0.05219,0.32532,0.40533,26
96616,4.293,113.953,-2.288,1.464,30.012,1013.088,5092.500,-315.000,-4480.000,24.484,-0.05219,0.32483,0.40491,26
96640,4.293,113.953,-2.288,2.074,32.452,1013.088,735.000,-297.500,157.500,24.492,-0.05212,0.32385,0.40619,26
96676,4.293,113.953,-2.288,1.586,34.892,1012.844,5547.500,-210.000,-262.500,24.469,-0.05219,0.32281,0.40570,26
96700,4.293,113.953,-2.288,0.976,35.868,1012.722,7262.500,-122.500,-262.500,24.484,-0.05225,0.32178,0.40729,26
96729,4.293,113.953,-2.288,3.294,35.380,1013.088,-2100.000,-665.000,3465.000,24.492,-0.05145,0.32300,0.40509,26
96753,4.293,113.953,-2.288,4.148,36.356,1012.966,-6265.000,-490.000,1452.500,24.477,-0.05133,0.32465,0.40503,26
96782,4.293,113.953,-2.288,3.538,37.820,1012.844,-4585.000,-770.000,3430.000,24.500,-0.05121,0.32483,0.40381,26
96806,4.293,113.953,-2.288,0.000,38.552,1012.600,2782.500,-437.500,315.000,24.492,-0.05127,0.32385,0.40466,26
96841,4.293,113.953,-2.288,-0.244,36.600,1012.600,2852.500,-402.500,-3937.500,24.492,-0.05176,0.32422,0.40466,26
96865,4.293,113.953,-2.288,1.952,30.256,1012.356,3990.000,70.000,-12477.500,24.492,-0.05292,0.32312,0.40436,26
96894,4.293,113.953,-2.288,3.172,26.718,1012.844,-4392.500,332.500,-7140.000,24.484,-0.05420,0.32349,0.40234,26
96918,4.293,113.953,-2.288,4.392,30.500,1013.332,-10640.000,-1995.000,420.000,24.500,-0.05487,0.32568,0.40137,27
96952,4.293,113.953,-2.288,-0.244,40.626,1012.844,-6895.000,-875.000,-3692.500,24.484,-0.05475,0.32666,0.39996,26
96976,4.293,113.953,-2.288,-0.610,38.796,1012.478,52.500,-245.000,-4182.500,24.484,-0.05469,0.32642,0.39984,27
97005,4.293,113.953,-2.288,0.122,34.282,1013.088,-13755.000,-35.000,-3850.000,24.484,-0.05524,0.32947,0.39813,27
97029,4.293,113.953,-2.288,-0.366,34.160,1014.918,-24867.500,-2537.500,87.500,24.477,-0.05505,0.33441,0.39630,27
97064,4.293,113.953,-2.288,1.586,29.768,1014.796,-32707.500,-717.500,-280.000,24.477,-0.05444,0.34186,0.39099,26
97088,4.293,113.953,-2.288,-3.538,25.864,1017.358,-34790.000,14280.000,52.500,24.484,-0.05200,0.34448,0.39038,27
97117,4.293,113.953,-2.288,-4.636,21.472,1031.388,-12635.000,9905.000,1592.500,24.461,-0.05029,0.34448,0.39008,27
97141,4.293,113.953,-2.288,-1.586,16.104,1038.708,5670.000,-437.500,-1890.000,24.500,-0.05084,0.34076,0.39307,27
97170,4.293,113.953,-2.288,-9.028,12.932,1044.076,18182.500,-665.000,-1382.500,24.484,-0.05145,0.33521,0.39410,27
97194,4.293,113.953,-2.288,-10.980,11.712,1038.098,13755.000,-560.000,1750.000,24.469,-0.05292,0.33136,0.39600,27
97229,4.293,113.953,-2.288,-6.588,13.298,1028.460,11865.000,-9870.000,-2502.500,24.469,-0.05560,0.32697,0.39636,27
97253,4.293,113.953,-2.288,-13.908,12.688,1017.602,10710.000,4445.000,-4445.000,24.461,-0.05322,0.32452,0.39722,27
97282,4.291,113.953,-2.288,-24.400,14.396,1007.842,-1085.000,14997.500,3657.500,24.484,-0.05103,0.32501,0.39508,27
97306,4.291,113.953,-2.288,-18.544,17.568,1016.260,-927.500,-4480.000,1837.500,24.484,-0.05212,0.32489,0.39563,27
97341,4.291,113.953,-2.288,-26.108,25.620,1024.068,4322.500,-10010.000,6510.000,24.469,-0.05231,0.32410,0.39447,27
97365,4.291,113.953,-2.288,-29.280,23.424,1007.964,-2450.000,11672.500,-297.500,24.437,-0.05084,0.32513,0.39465,27
97394,4.291,113.953,-2.288,-22.326,26.230,1011.258,2205.000,-1277.500,-560.000,24.461,-0.05121,0.32465,0.39368,27
97418,4.291,113.953,-2.288,-17.690,25.376,1007.720,1662.500,-3377.500,875.000,24.477,-0.05206,0.32416,0.39478,27
97453,4.291,113.953,-2.288,-9.638,28.426,1006.866,1575.000,-5845.000,1890.000,24.484,-0.05304,0.32422,0.39417,27
97477,4.291,113.953,-2.288,-4.026,25.864,998.936,-4427.500,-1435.000,350.000,24.484,-0.05347,0.32550,0.39410,27
97506,4.291,113.953,-2.288,1.464,25.864,1001.620,-5880.000,-4742.500,-2222.500,24.500,-0.05389,0.32642,0.39349,27
97530,4.294,113.953,-2.288,4.758,26.108,1011.624,1785.000,-9310.000,-2607.500,24.453,-0.05560,0.32648,0.39465,27
97566,4.294,113.953,-2.288,7.076,22.692,1007.232,-1925.000,4847.500,-6352.500,24.453,-0.05469,0.32703,0.39404,27
97590,4.294,113.953,-2.288,8.296,23.180,1008.086,-3815.000,6055.000,-6912.500,24.453,-0.05463,0.32703,0.39404,27
97619,4.294,113.953,-2.288,6.100,25.986,1015.284,4392.500,-3692.500,-2555.000,24.492,-0.05463,0.32617,0.39404,27
97643,4.294,113.953,-2.288,0.122,25.498,1009.672,6912.500,10745.000,-1557.500,24.469,-0.05133,0.32489,0.39539,27
97678,4.294,113.953,-2.288,-0.732,30.256,1004.914,4532.500,12705.000,-2187.500,24.469,-0.04852,0.32458,0.39490,27
97702,4.294,113.953,-2.288,4.758,20.008,1005.036,-3220.000,6702.500,-3517.500,24.477,-0.04889,0.32507,0.39520,27
97731,4.294,113.953,-2.288,13.908,18.788,1030.656,4445.000,-16012.500,-7385.000,24.477,-0.05292,0.32397,0.39526,27
97755,4.294,113.953,-2.288,5.734,17.568,1034.438,10307.500,-15837.500,-6335.000,24.469,-0.05505,0.32263,0.39685,27
97784,4.293,113.953,-2.288,-12.078,11.224,1023.946,5775.000,-280.000,-5985.000,24.430,-0.05609,0.32153,0.39722,27
97808,4.293,113.953,-2.288,-16.348,11.956,1033.828,9082.500,-4060.000,-5022.500,24.477,-0.05774,0.31879,0.39899,27
97843,4.293,113.953,-2.288,-23.790,15.494,1048.224,23310.000,-17395.000,717.500,24.461,-0.06097,0.31384,0.40100,27
97867,4.293,113.953,-2.288,-22.204,10.492,1020.652,10920.000,770.000,-6965.000,24.461,-0.06146,0.31274,0.40210,27
97896,4.293,113.953,-2.288,-8.662,11.468,1011.624,2537.500,-4585.000,-9065.000,24.437,-0.06329,0.31256,0.40149,27
97920,4.293,113.953,-2.288,-11.224,15.616,1007.720,1837.500,-490.000,-6405.000,24.461,-0.06244,0.31219,0.40192,27
97954,4.293,113.953,-2.288,-13.176,21.716,1005.646,-3115.000,14350.000,-5670.000,24.469,-0.06012,0.31287,0.40125,27
97978,4.293,113.953,-2.288,-8.784,25.132,1006.500,-6230.000,8277.500,-3972.500,24.477,-0.06055,0.31323,0.40198,27
98007,4.293,113.953,-2.288,-7.076,32.696,1022.360,4147.500,-9152.500,-3115.000,24.484,-0.06311,0.31134,0.40186,27
98031,4.291,113.953,-2.288,-0.854,28.304,1019.188,22697.500,-11252.500,-3132.500,24.461,-0.06421,0.31647,0.40009,27
98066,4.291,113.953,-2.288,5.490,33.184,1018.212,-32935.000,-20440.000,6142.500,24.461,-0.06720,0.32330,0.39630,27
98090,4.291,113.953,-2.288,8.052,24.522,1019.066,-15505.000,-9940.000,2642.500,24.469,-0.06818,0.32471,0.39594,27
98119,4.291,113.953,-2.288,10.980,20.008,1015.650,-12512.500,4235.000,-5390.000,24.461,-0.06787,0.32745,0.39423,27
98143,4.291,113.953,-2.288,9.272,14.152,1009.672,-13737.500,-1522.500,-2257.500,24.469,-0.06744,0.32904,0.39392,27
98178,4.291,113.953,-2.288,12.810,-0.976,1014.796,-4900.000,9117.500,-6335.000,24.453,-0.06848,0.32886,0.39417,27
98202,4.291,113.953,-2.288,21.228,0.854,1033.340,10360.000,-7157.500,-5040.000,24.492,-0.06982,0.32812,0.39612,27
98231,4.291,113.953,-2.288,17.568,0.000,1022.970,7332.500,-12215.000,-2642.500,24.477,-0.07245,0.32678,0.39667,27
98255,4.291,113.953,-2.288,21.228,3.050,1015.772,4970.000,-8452.500,-5897.500,24.484,-0.07458,0.32483,0.39777,27
98284,4.291,113.953,-2.288,28.304,4.758,1017.236,15820.000,-3062.500,-13387.500,24.492,-0.07697,0.32153,0.39941,27
98308,4.291,113.953,-2.288,26.108,7.686,1018.212,17202.500,-7892.500,-11235.000,24.477,-0.07886,0.31885,0.40222,27
98343,4.291,113.953,-2.288,15.738,13.054,1015.162,14280.000,2922.500,-3920.000,24.477,-0.07880,0.31451,0.40424,27
98367,4.291,113.953,-2.288,12.322,20.496,1014.552,21175.000,4602.500,-4865.000,24.445,-0.07800,0.31116,0.40729,27
98396,4.291,113.953,-2.288,12.200,20.740,1004.792,17412.500,10937.500,-9397.500,24.453,-0.07776,0.30707,0.40930,27
98420,4.291,113.953,-2.288,13.664,29.036,1009.916,21227.500,-7175.000,-6422.500,24.469,-0.07971,0.30469,0.41144,27
98455,4.291,113.953,-2.288,20.130,39.650,1001.864,17517.500,-9502.500,-3797.500,24.469,-0.08356,0.30035,0.41321,27
98479,4.291,113.953,-2.288,20.496,41.602,999.302,17290.000,-21472.500,297.500,24.453,-0.08582,0.29761,0.41534,27
98510,4.291,113.953,-2.288,33.916,36.844,989.908,4952.500,-1785.000,-3587.500,24.469,-0.08746,0.29572,0.41669,27
98534,4.291,113.953,-2.288,35.868,37.576,1004.304,22522.500,-18497.500,4042.500,24.484,-0.08954,0.29138,0.41882,27
98569,4.291,113.953,-2.288,29.158,40.748,994.178,-3185.000,7910.000,1032.500,24.461,-0.08777,0.29108,0.41907,27
98593,4.291,113.953,-2.288,36.600,55.510,1013.332,7595.000,1732.500,2222.500,24.500,-0.08917,0.29034,0.41974,27
98624,4.291,113.953,-2.288,43.432,62.586,1005.524,-262.500,490.000,-8610.000,24.484,-0.08911,0.28998,0.42102,27
98648,4.291,113.953,-2.288,41.602,56.974,996.374,-4760.000,14770.000,-6020.000,24.469,-0.08765,0.28949,0.42212,27
98683,4.291,113.953,-2.288,50.386,65.392,1027.484,-9450.000,-3780.000,-4462.500,24.523,-0.08923,0.28925,0.42230,27
98707,4.291,113.953,-2.288,41.480,64.904,1027.728,10360.000,385.000,-4235.000,24.523,-0.08868,0.28729,0.42371,27
98736,4.291,113.953,-2.288,29.646,70.760,1015.162,15365.000,420.000,-2537.500,24.508,-0.08856,0.28510,0.42438,27
98760,4.293,113.953,-2.288,24.766,77.104,1010.648,3255.000,-10360.000,-1820.000,24.484,-0.09143,0.28223,0.42554,27
98795,4.293,113.953,-2.288,23.424,88.816,1011.868,22120.000,-24745.000,612.500,24.477,-0.09583,0.27905,0.42609,27
98819,4.293,113.953,-2.288,23.180,90.036,989.908,-9117.500,665.000,-2625.000,24.500,-0.09436,0.27917,0.42749,27
98848,4.293,113.953,-2.288,35.502,85.156,994.666,-4007.500,9677.500,-7017.500,24.477,-0.09454,0.27948,0.42688,27
98872,4.293,113.953,-2.288,50.142,92.842,1015.650,-5232.500,-15137.500,-7297.500,24.508,-0.09778,0.27985,0.42682,27
98901,4.293,113.953,-2.288,40.382,90.646,1001.376,-11252.500,-6317.500,-35.000,24.500,-0.09845,0.28131,0.42615,27
98925,4.293,113.953,-2.288,24.766,90.646,997.838,6807.500,-11130.000,9905.000,24.484,-0.10028,0.27985,0.42615,27
98959,4.293,113.953,-2.288,19.642,94.306,980.758,-5617.500,-9782.500,3710.000,24.484,-0.10193,0.27759,0.42590,27
98983,4.293,113.953,-2.288,22.448,87.962,968.436,4112.500,-6755.000,3675.000,24.484,-0.10260,0.27924,0.42627,27
99012,4.293,113.953,-2.288,29.768,89.182,960.628,-39987.500,-1977.500,-472.500,24.492,-0.10242,0.28424,0.42273,27
99036,4.293,113.953,-2.288,26.596,80.032,969.412,-12040.000,-35.000,1050.000,24.477,-0.10059,0.28595,0.42322,27
99071,4.293,113.953,-2.288,38.308,66.124,1001.742,-3517.500,2905.000,-735.000,24.484,-0.09985,0.28668,0.42224,27
99095,4.293,113.953,-2.288,46.116,63.684,1007.964,-5705.000,-5495.000,3290.000,24.445,-0.09979,0.28809,0.42145,27
99124,4.293,113.953,-2.288,60.756,57.340,998.204,-12145.000,3290.000,3097.500,24.477,-0.09857,0.29059,0.42010,27
99148,4.293,113.953,-2.288,67.588,55.388,1000.278,-14420.000,11112.500,1505.000,24.477,-0.09650,0.29132,0.42072,27
99183,4.293,113.953,-2.288,66.856,49.898,998.448,3062.500,5810.000,-1785.000,24.477,-0.09473,0.29144,0.41931,27
99207,4.293,113.953,-2.288,60.756,44.286,992.592,-15015.000,4865.000,2135.000,24.492,-0.09241,0.29407,0.41858,27
99236,4.293,113.953,-2.288,61.000,39.040,1000.400,-13825.000,10290.000,752.500,24.477,-0.09021,0.29449,0.41724,27
99260,4.294,113.953,-2.288,61.976,33.672,1010.282,4217.500,-2362.500,5845.000,24.453,-0.09064,0.29315,0.41833,27
99295,4.294,113.953,-2.288,68.930,25.864,1004.304,-11707.500,-6177.500,910.000,24.469,-0.09198,0.29547,0.41638,27
99319,4.294,113.953,-2.288,72.712,24.522,1015.528,-8277.500,-2257.500,-192.500,24.469,-0.09149,0.29639,0.41656,27
99348,4.294,113.953,-2.288,70.272,22.448,1031.388,1942.500,-3202.500,245.000,24.469,-0.09241,0.29449,0.41663,27
99372,4.294,113.953,-2.288,57.340,23.912,1039.562,612.500,-9625.000,7070.000,24.469,-0.09424,0.29425,0.41650,27
99401,4.294,113.953,-2.288,61.244,22.204,1034.072,-4882.500,-11795.000,2380.000,24.469,-0.09515,0.29321,0.41626,27
99425,4.294,113.953,-2.288,61.732,20.740,1038.342,9922.500,105.000,-192.500,24.469,-0.09497,0.29108,0.41760,27
99461,4.294,113.953,-2.288,59.048,26.474,1026.630,12390.000,1697.500,-6090.000,24.461,-0.09473,0.28809,0.41864,27
99485,4.294,113.953,-2.288,54.900,31.232,1010.038,8645.000,12897.500,-10990.000,24.461,-0.09418,0.28650,0.41919,27
99514,4.291,113.953,-2.288,54.168,42.700,991.250,-6860.000,-1697.500,-1050.000,24.469,-0.09259,0.28650,0.41779,27
99538,4.291,113.953,-2.288,54.778,40.870,987.956,-3027.500,12302.500,-140.000,24.477,-0.09058,0.28638,0.41895,27
99573,4.291,113.953,-2.288,59.536,37.942,991.250,-2310.000,2992.500,-822.500,24.477,-0.08966,0.28577,0.41919,27
99597,4.291,113.953,-2.288,68.808,40.382,992.592,-5145.000,-2362.500,-3115.000,24.453,-0.09119,0.28522,0.41998,27
99626,4.291,113.953,-2.288,75.152,47.092,1007.720,6370.000,-14332.500,-5967.500,24.469,-0.09381,0.28217,0.41968,27
99650,4.291,113.953,-2.288,55.754,48.922,1011.990,18672.500,-5617.500,2397.500,24.453,-0.09418,0.27924,0.42187,27
99685,4.291,113.953,-2.288,58.316,55.510,1010.404,19145.000,-17710.000,10290.000,24.437,-0.09521,0.27722,0.42181,27
99709,4.291,113.953,-2.288,68.076,48.312,978.196,-18882.500,910.000,10377.500,24.477,-0.09424,0.27863,0.42218,27
99738,4.291,113.953,-2.288,57.706,40.016,990.396,5162.500,-3360.000,6912.500,24.484,-0.09418,0.27997,0.42151,27
99762,4.293,113.953,-2.288,48.190,31.476,983.808,-8662.500,-1820.000,455.000,24.469,-0.09314,0.28192,0.42163,27
99797,4.293,113.953,-2.288,62.464,31.964,991.128,-8750.000,-2800.000,-6580.000,24.430,-0.09424,0.28418,0.41974,27
99821,4.293,113.953,-2.288,65.026,28.548,996.862,-7385.000,3850.000,-6195.000,24.469,-0.09247,0.28583,0.42041,27
99850,4.293,113.953,-2.288,64.416,20.252,1018.212,-1295.000,11340.000,-9555.000,24.484,-0.09192,0.28534,0.42029,27
99874,4.293,113.953,-2.288,63.562,21.716,1026.264,-12372.500,3307.500,-4410.000,24.461,-0.09363,0.28375,0.42078,27
99903,4.293,113.953,-2.288,62.586,12.078,1014.430,-15890.000,-3692.500,4375.000,24.469,-0.09393,0.28723,0.41974,27
99927,4.293,113.953,-2.288,63.928,10.736,1020.164,-12232.500,-6492.500,122.500,24.461,-0.09460,0.28784,0.41980,27
99964,4.293,113.953,-2.288,55.144,9.394,1014.552,-11760.000,-752.500,2660.000,24.453,-0.09424,0.29102,0.41809,27
99988,4.293,113.953,-2.288,50.996,7.320,1006.744,-9100.000,1610.000,-157.500,24.500,-0.09357,0.29193,0.41815,27
100017,4.293,113.953,-2.288,51.484,7.320,1008.574,-16327.500,12110.000,-2870.000,24.477,-0.09039,0.29315,0.41650,27
100041,4.293,113.953,-2.288,49.288,6.832,1019.310,-14297.500,18917.500,-2135.000,24.437,-0.08905,0.29364,0.41663,27
100075,4.293,113.953,-2.288,49.410,-0.732,1028.216,-11270.000,-770.000,1890.000,24.477,-0.08893,0.29407,0.41473,27
100099,4.293,113.953,-2.288,44.530,-4.514,1025.654,-16345.000,-3482.500,3675.000,24.453,-0.08978,0.29468,0.41461,27
100128,4.293,113.953,-2.288,41.480,-10.858,1027.728,-262.500,-735.000,1907.500,24.477,-0.08942,0.29407,0.41321,27
100152,4.293,113.953,-2.288,42.456,-14.030,1029.802,-1330.000,3045.000,1610.000,24.492,-0.08923,0.29462,0.41351,27
100187,4.293,113.953,-2.288,49.898,-23.668,1026.508,-3150.000,-542.500,1995.000,24.461,-0.08929,0.29407,0.41132,27
100211,4.293,113.953,-2.288,57.584,-26.108,1034.072,-1977.500,-1925.000,700.000,24.469,-0.09003,0.29376,0.41156,27
100240,4.293,113.953,-2.288,61.488,-28.914,1035.170,-3202.500,3237.500,-752.500,24.461,-0.08997,0.29266,0.41040,27
100264,4.293,113.953,-2.288,62.708,-30.500,1037.976,5390.000,-1190.000,2292.500,24.484,-0.09039,0.29169,0.41083,27
100300,4.293,113.953,-2.288,68.564,-30.134,1030.046,-13982.500,-1697.500,-1207.500,24.453,-0.09186,0.29034,0.41010,27
100324,4.293,113.953,-2.288,62.952,-34.282,1024.434,7717.500,-6667.500,2485.000,24.492,-0.09186,0.29181,0.40912,27
100353,4.293,113.953,-2.288,56.608,-30.744,1030.290,1190.000,-420.000,-4480.000,24.500,-0.09198,0.28906,0.40845,27
100377,4.293,113.953,-2.288,53.802,-40.016,1016.748,-4882.500,5285.000,-1102.500,24.484,-0.09125,0.28912,0.40851,27
100412,4.293,113.953,-2.288,59.170,-43.188,1023.092,927.500,-8575.000,-4095.000,24.516,-0.09326,0.28851,0.40741,27
100436,4.293,113.953,-2.288,59.536,-52.460,1014.064,8907.500,-5827.500,2572.500,24.484,-0.09399,0.28918,0.40692,27
100465,4.293,113.953,-2.288,60.756,-48.556,1011.136,-2345.000,-1610.000,-2152.500,24.484,-0.09442,0.28888,0.40613,27
100489,4.293,113.953,-2.288,56.852,-58.438,1008.208,14472.500,3587.500,-2152.500,24.437,-0.09430,0.28967,0.40619,27
100518,4.293,113.953,-2.288,59.780,-55.876,1012.844,-5635.000,-7122.500,-1575.000,24.469,-0.09454,0.28851,0.40582,27
100542,4.293,113.953,-2.288,55.754,-58.682,1005.280,-8820.000,1645.000,402.500,24.445,-0.09418,0.28882,0.40631,27
100577,4.293,113.953,-2.288,57.828,-62.952,998.204,-2747.500,13667.500,-5530.000,24.453,-0.09143,0.28888,0.40686,27
100601,4.293,113.953,-2.288,57.584,-63.196,1002.352,4410.000,8522.500,157.500,24.445,-0.09058,0.28821,0.40833,27
100630,4.293,113.953,-2.288,54.778,-60.146,1005.768,5477.500,-2012.500,1977.500,24.469,-0.09021,0.28693,0.40826,27
100654,4.293,113.953,-2.288,48.800,-59.902,1008.696,8365.000,3307.500,840.000,24.453,-0.08868,0.28534,0.41034,27
100689,4.293,113.953,-2.288,46.238,-55.632,1025.044,14787.500,-402.500,140.000,24.477,-0.08850,0.28253,0.41150,27
100713,4.293,113.953,-2.288,46.848,-52.948,1017.480,210.000,1277.500,-2170.000,24.492,-0.08905,0.28369,0.41113,27
100742,4.293,113.953,-2.288,40.260,-44.286,1020.408,-3570.000,-9817.500,1347.500,24.484,-0.08978,0.28516,0.41058,27
100766,4.293,113.953,-2.288,25.376,-35.990,1023.336,-3937.500,717.500,4200.000,24.453,-0.08813,0.28711,0.41046,27
100800,4.293,113.953,-2.288,22.204,-33.184,1018.212,-32690.000,14945.000,11830.000,24.461,-0.08344,0.29553,0.40625,27
100824,4.293,113.953,-2.288,39.528,-36.112,1020.408,-34772.500,8662.500,15872.500,24.477,-0.08099,0.30219,0.40472,27
100853,4.293,113.953,-2.288,61.122,-41.236,1023.580,-27492.500,-2135.000,17885.000,24.484,-0.08142,0.30652,0.40228,27
100877,4.293,113.953,-2.288,72.346,-40.992,1038.708,-1855.000,-22645.000,20160.000,24.477,-0.08295,0.30621,0.40289,27
100911,4.293,113.953,-2.288,76.860,-46.360,1037.732,5390.000,-18567.500,27685.000,24.477,-0.08557,0.30585,0.40259,27
100935,4.293,113.953,-2.288,83.448,-48.068,1035.048,9047.500,-28770.000,35210.000,24.469,-0.08875,0.30469,0.40338,27
100964,4.293,113.953,-2.288,112.118,-54.656,1029.314,9730.000,-59342.500,33040.000,24.477,-0.09772,0.30389,0.40295,27
100988,4.293,113.953,-2.288,123.464,-59.780,1023.458,5547.500,-71557.500,41125.000,24.453,-0.10333,0.30359,0.40369,27
101022,4.294,113.953,-2.288,126.758,-64.416,1007.110,14070.000,-20772.500,21805.000,24.508,-0.10529,0.30103,0.40411,27
101046,4.294,113.953,-2.288,129.564,-67.466,998.082,10237.500,4077.500,1610.000,24.523,-0.10437,0.30005,0.40564,27
101075,4.294,113.953,-2.288,144.692,-67.832,998.814,-5932.500,4602.500,-927.500,24.484,-0.10358,0.30182,0.40533,27
101099,4.294,113.953,-2.288,152.378,-67.588,999.790,-6037.500,6492.500,-8820.000,24.453,-0.10321,0.30206,0.40564,27
101128,4.294,113.953,-2.288,138.592,-64.172,1008.330,4672.500,8277.500,-1470.000,24.477,-0.10236,0.30133,0.40607,27
101152,4.294,113.953,-2.288,136.640,-65.148,1002.108,3780.000,13457.500,-11427.500,24.461,-0.10254,0.30090,0.40613,27
101187,4.294,113.953,-2.288,132.736,-63.440,994.300,-4130.000,-18252.500,-5057.500,24.484,-0.10718,0.30316,0.40436,27
101211,4.294,113.953,-2.288,118.096,-60.268,992.714,-507.500,-12337.500,1277.500,24.461,-0.10864,0.30286,0.40466,27
101242,4.294,113.953,-2.288,116.998,-62.098,991.128,-3990.000,-3447.500,-2555.000,24.477,-0.11011,0.30389,0.40405,27
101266,4.293,113.953,-2.288,113.704,-63.928,993.934,-1785.000,-1785.000,-700.000,24.437,-0.11005,0.30457,0.40424,27
101301,4.293,113.953,-2.288,116.632,-69.418,989.786,-4112.500,5057.500,-13912.500,24.453,-0.11108,0.30548,0.40363,27
101325,4.293,113.953,-2.288,123.708,-68.930,994.300,1417.500,-7980.000,-10482.500,24.469,-0.11285,0.30634,0.40265,27
101354,4.293,113.953,-2.288,123.098,-71.858,1005.646,11637.500,7525.000,-7210.000,24.461,-0.11011,0.30627,0.40314,27
101378,4.293,113.953,-2.288,128.344,-69.906,1001.620,-8365.000,30275.000,-9625.000,24.445,-0.10870,0.30646,0.40363,27
101413,4.293,113.953,-2.288,157.380,-78.080,996.496,-12495.000,-2940.000,-14070.000,24.445,-0.11115,0.31012,0.40039,27
101437,4.293,113.953,-2.288,148.596,-73.688,993.324,-16957.500,-18970.000,-3167.500,24.461,-0.11395,0.31506,0.39752,27
101466,4.293,113.953,-2.288,145.790,-71.980,1009.184,6160.000,-19687.500,927.500,24.445,-0.11389,0.31689,0.39600,27
101490,4.293,113.953,-2.288,146.522,-78.690,987.468,-11042.500,15452.500,-8400.000,24.469,-0.11334,0.31842,0.39581,27
101525,4.293,113.953,-2.288,155.550,-83.570,991.616,-7927.500,-5267.500,-13300.000,24.477,-0.11572,0.32062,0.39325,27
101549,4.293,113.953,-2.288,158.844,-83.326,1000.400,-4252.500,2642.500,-19635.000,24.469,-0.11652,0.32178,0.39362,27
101578,4.293,113.953,-2.288,153.232,-79.910,1012.722,-6387.500,-9765.000,-5547.500,24.453,-0.11603,0.32324,0.39081,27
101602,4.293,113.953,-2.288,144.448,-79.300,1009.306,-2782.500,19092.500,-13842.500,24.484,-0.11249,0.32391,0.39172,27
101637,4.293,113.953,-2.288,146.400,-79.788,1011.380,-7577.500,7822.500,-15627.500,24.453,-0.11182,0.32587,0.38947,27
101661,4.293,113.953,-2.288,138.470,-79.788,1012.600,-9975.000,-5285.000,-9415.000,24.469,-0.11237,0.32806,0.38849,27
101690,4.293,113.953,-2.288,118.218,-80.032,1019.798,-3622.500,-4392.500,-4847.500,24.437,-0.11200,0.32928,0.38654,27
101714,4.293,113.953,-2.288,117.120,-85.400,1018.944,-2152.500,3115.000,-10062.500,24.445,-0.11139,0.33099,0.38641,27
101748,4.293,113.953,-2.288,122.976,-103.334,1014.186,-9345.000,10255.000,-12495.000,24.461,-0.11084,0.33264,0.38440,27
101772,4.293,113.953,-2.288,132.492,-111.508,1034.072,210.000,-7000.000,-14805.000,24.453,-0.10980,0.33264,0.38452,27
101801,4.293,113.953,-2.288,114.192,-104.554,1030.412,9712.500,36470.000,-17972.500,24.430,-0.10364,0.33142,0.38593,27
101825,4.293,113.953,-2.288,110.532,-100.162,1028.948,8015.000,17885.000,-16415.000,24.437,-0.10211,0.33075,0.38672,27
101859,4.293,113.953,-2.288,100.406,-97.356,1013.210,-2362.500,-2152.500,-13212.500,24.469,-0.10150,0.33246,0.38562,27
101883,4.293,113.953,-2.288,82.228,-91.988,1007.964,-4987.500,-1067.500,-5652.500,24.437,-0.10114,0.33228,0.38580,27
101912,4.293,113.953,-2.288,71.614,-88.694,1006.012,1557.500,3097.500,-4322.500,24.453,-0.09863,0.33301,0.38513,27
101936,4.293,113.953,-2.288,71.004,-90.280,999.912,-2327.500,11427.500,-9187.500,24.457,-0.09729,0.33368,0.38562,27
101965,4.293,113.953,-2.288,62.830,-89.060,1001.498,-3587.500,-2695.000,-2590.000,24.430,-0.09595,0.33472,0.38544,27
101989,4.293,113.953,-2.288,56.608,-84.668,1004.792,997.500,10290.000,-6265.000,24.461,-0.09503,0.33459,0.38599,27
102023,4.293,113.953,-2.288,64.294,-88.938,1013.942,927.500,-12862.500,-6720.000,24.469,-0.09857,0.33484,0.38501,27
102047,4.293,113.953,-2.288,65.026,-89.792,1011.868,420.000,-22137.500,-5897.500,24.414,-0.10046,0.33472,0.38470,27
102076,4.293,113.953,-2.288,49.776,-84.912,991.128,-2450.000,5600.000,490.000,24.434,-0.09753,0.33545,0.38428,27
102100,4.293,113.953,-2.288,53.314,-83.082,990.030,-3640.000,2082.500,2537.500,24.461,-0.09613,0.33594,0.38489,27
102136,4.293,113.953,-2.288,58.804,-86.132,997.472,2345.000,11882.500,-1557.500,24.469,-0.09247,0.33521,0.38477,27
102160,4.293,113.953,-2.288,66.246,-90.402,994.544,2082.500,19232.500,-6737.500,24.469,-0.08997,0.33514,0.38580,27
102189,4.293,113.953,-2.288,73.200,-96.990,1001.498,7280.000,3447.500,-7262.500,24.465,-0.08966,0.33356,0.38568,27
102213,4.293,113.953,-2.288,70.394,-98.088,1006.622,3010.000,-8155.000,-4427.500,24.477,-0.09106,0.33209,0.38721,27
102248,4.293,113.953,-2.288,60.268,-100.650,1005.646,8662.500,8785.000,-1557.500,24.461,-0.08795,0.32990,0.38788,27
102272,4.293,113.953,-2.288,66.124,-104.676,1006.866,8522.500,12250.000,717.500,24.461,-0.08582,0.32910,0.38910,27
102301,4.293,113.953,-2.288,71.980,-105.652,1004.670,7770.000,262.500,2940.000,24.422,-0.08478,0.32751,0.38940,27
102325,4.293,113.953,-2.288,63.440,-102.114,998.082,9590.000,10937.500,7787.500,24.461,-0.08154,0.32581,0.39166,27
102360,4.293,113.953,-2.288,49.288,-99.064,999.180,-7420.000,-3062.500,3885.000,24.453,-0.08228,0.32678,0.39050,27
102384,4.293,113.953,-2.288,52.826,-98.942,1002.962,-8505.000,-12547.500,3062.500,24.430,-0.08386,0.32794,0.38989,27
102413,4.293,113.953,-2.288,52.826,-96.990,1005.646,-6930.000,-11917.500,1190.000,24.477,-0.08502,0.32794,0.38849,27
102437,4.293,113.953,-2.288,50.020,-94.184,1009.184,4042.500,-595.000,1400.000,24.461,-0.08484,0.32727,0.38940,27
102474,4.293,113.953,-2.288,56.364,-92.232,1008.940,7735.000,-997.500,4025.000,24.430,-0.08441,0.32574,0.39075,27
102498,4.293,113.953,-2.288,60.756,-90.890,999.546,-595.000,1050.000,4585.000,24.453,-0.08356,0.32648,0.39044,27
102527,4.293,113.953,-2.288,60.390,-90.524,995.886,-9590.000,4077.500,665.000,24.453,-0.08368,0.32739,0.38885,27
102551,4.293,113.953,-2.288,62.708,-87.840,1003.328,-4900.000,-7087.500,-1750.000,24.437,-0.08447,0.32861,0.38867,27
102580,4.293,113.953,-2.288,62.098,-86.376,1004.304,-507.500,6825.000,-857.500,24.453,-0.08386,0.32837,0.38824,27
102604,4.293,113.953,-2.288,66.734,-87.108,1014.430,-682.500,-4847.500,4847.500,24.484,-0.08459,0.32880,0.38904,27
102639,4.293,113.953,-2.288,75.396,-90.158,1018.944,332.500,-9117.500,4147.500,24.477,-0.08594,0.32898,0.38800,27
102663,4.293,113.953,-2.288,79.788,-90.280,1026.752,2327.500,-9310.000,2852.500,24.469,-0.08685,0.32886,0.38824,27
102692,4.293,113.953,-2.288,82.960,-92.720,1026.630,5442.500,3255.000,-2520.000,24.484,-0.08636,0.32776,0.38855,27
102716,4.293,113.953,-2.288,86.132,-95.648,1023.458,3762.500,7980.000,-5092.500,24.492,-0.08575,0.32703,0.38995,27
102750,4.293,113.953,-2.288,77.714,-94.672,1034.926,11567.500,-3290.000,-332.500,24.461,-0.08630,0.32501,0.39026,27
102774,4.294,113.953,-2.288,73.200,-95.892,1027.850,11935.000,315.000,-682.500,24.477,-0.08582,0.32330,0.39124,27
102803,4.294,113.953,-2.288,75.152,-97.844,1011.380,5092.500,7262.500,-1172.500,24.469,-0.08496,0.32361,0.39117,27
102827,4.294,113.953,-2.288,79.788,-99.430,1002.840,-2222.500,2800.000,1645.000,24.477,-0.08514,0.32501,0.39172,27
102861,4.294,113.953,-2.288,86.864,-105.164,1008.330,-2817.500,-12530.000,2572.500,24.469,-0.08704,0.32629,0.39050,27
102885,4.294,113.953,-2.288,88.816,-108.824,1006.988,525.000,0.000,-647.500,24.477,-0.08661,0.32654,0.39124,27
102914,4.294,113.953,-2.288,94.306,-119.804,1020.530,5337.500,11235.000,-5215.000,24.492,-0.08612,0.32660,0.39142,27
102938,4.294,113.953,-2.288,94.916,-125.782,1038.342,12057.500,-3955.000,-1522.500,24.484,-0.08722,0.32507,0.39307,27
102972,4.294,113.953,-2.288,104.554,-134.444,1033.706,15102.500,-7945.000,-8312.500,24.453,-0.08942,0.32233,0.39423,27
102996,4.294,113.953,-2.288,100.284,-129.808,1025.166,17132.500,1575.000,-9782.500,24.453,-0.08948,0.32037,0.39630,27
103025,4.294,113.953,-2.288,87.108,-126.636,1024.190,13842.500,3080.000,87.500,24.437,-0.09033,0.31989,0.39746,27
103049,4.294,113.953,-2.288,76.128,-122.854,1027.728,14700.000,770.000,2047.500,24.461,-0.09021,0.31854,0.39972,27
103085,4.294,113.953,-2.288,91.744,-111.508,1002.596,5547.500,14700.000,-11287.500,24.484,-0.08917,0.31885,0.40063,27
103109,4.294,113.953,-2.288,99.064,-103.944,1009.428,6877.500,-857.500,-8522.500,24.492,-0.09027,0.31879,0.40112,27
103138,4.294,113.953,-2.288,88.694,-92.476,1005.768,5302.500,9730.000,17.500,24.461,-0.08630,0.31952,0.40155,27
103162,4.294,113.953,-2.288,71.248,-83.204,1010.160,7490.000,24377.500,5162.500,24.492,-0.08240,0.31958,0.40338,27
103191,4.294,113.953,-2.288,66.978,-79.910,1012.844,4882.500,15767.500,10902.500,24.461,-0.08246,0.32056,0.40308,27
103215,4.294,113.953,-2.288,69.296,-71.370,1023.580,4217.500,-22557.500,15627.500,24.484,-0.08606,0.32153,0.40338,27
103250,4.294,113.953,-2.288,78.568,-68.808,1017.480,3220.000,3360.000,-2397.500,24.477,-0.08698,0.32196,0.40369,27
103274,4.291,113.953,-2.288,89.914,-70.272,1029.802,5617.500,7717.500,-11130.000,24.469,-0.08765,0.32245,0.40430,27
103303,4.291,113.953,-2.288,88.206,-63.440,1039.196,7175.000,11445.000,-13597.500,24.477,-0.08783,0.32208,0.40485,27
103327,4.291,113.953,-2.288,80.764,-52.338,1037.000,10850.000,10237.500,-11025.000,24.484,-0.08685,0.32080,0.40674,27
103362,4.291,113.953,-2.288,67.344,-33.550,1018.212,5600.000,3762.500,-6685.000,24.500,-0.08856,0.32141,0.40631,27
103386,4.291,113.953,-2.288,53.192,-30.988,1016.382,-175.000,-18305.000,-472.500,24.492,-0.09320,0.32172,0.40594,27
103415,4.291,113.953,-2.288,45.872,-22.570,1018.334,7542.500,-14927.500,3360.000,24.500,-0.09570,0.32123,0.40582,27
103439,4.291,113.953,-2.288,49.776,-15.250,1001.864,7350.000,-11550.000,700.000,24.461,-0.09808,0.32135,0.40594,27
103474,4.291,113.953,-2.288,46.116,-15.860,982.466,-8627.500,-2782.500,1557.500,24.508,-0.10022,0.32349,0.40363,27
103498,4.291,113.953,-2.288,62.342,-20.374,993.324,-5617.500,-350.000,-5390.000,24.500,-0.10236,0.32465,0.40326,27
103527,4.293,113.953,-2.288,82.960,-23.668,996.008,-2100.000,-6790.000,-14227.500,24.469,-0.10358,0.32611,0.40125,27
103551,4.293,113.953,-2.288,75.030,-24.400,977.464,-16432.500,19477.500,-15645.000,24.477,-0.10132,0.32855,0.40100,27
103586,4.293,113.953,-2.288,58.926,-17.812,992.348,-14262.500,-6160.000,-13580.000,24.484,-0.10522,0.33209,0.39746,27
103610,4.293,113.953,-2.288,49.532,-10.736,994.056,-16345.000,-25200.000,2170.000,24.500,-0.10925,0.33472,0.39532,27
103639,4.293,113.953,-2.288,44.286,2.684,991.860,-16275.000,-6492.500,8627.500,24.492,-0.10956,0.33765,0.39276,27
103663,4.293,113.953,-2.288,54.290,3.660,1009.794,-997.500,-1120.000,2327.500,24.508,-0.11090,0.33722,0.39368,27
103697,4.293,113.953,-2.288,73.200,-8.296,1030.534,875.000,-12512.500,3132.500,24.484,-0.11389,0.33575,0.39294,27
103721,4.293,113.953,-2.288,76.128,-9.272,1036.634,8907.500,-22960.000,5950.000,24.492,-0.11792,0.33490,0.39380,27
103750,4.293,113.953,-2.288,89.304,-9.638,1052.006,12635.000,-45360.000,11637.500,24.484,-0.12677,0.33240,0.39197,27
103774,4.293,113.953,-2.288,105.530,-14.640,1051.152,14665.000,-47827.500,2170.000,24.484,-0.13324,0.32947,0.39233,27
103803,4.293,113.953,-2.288,132.004,-32.696,1039.074,21070.000,-28420.000,-22067.500,24.469,-0.14172,0.32458,0.39355,27
103827,4.293,113.953,-2.288,130.052,-32.086,1025.532,27702.500,-35857.500,-12215.000,24.477,-0.14282,0.31946,0.39545,27
103861,4.293,113.953,-2.288,120.414,-30.622,955.992,16625.000,40862.500,-27230.000,24.477,-0.13794,0.31567,0.39771,27
103885,4.293,113.953,-2.288,113.826,-21.350,960.872,-1277.500,11847.500,-25287.500,24.469,-0.13959,0.31488,0.39777,27
103914,4.293,113.953,-2.288,90.890,-2.196,983.564,3202.500,-11287.500,-11060.000,24.508,-0.14191,0.31287,0.39740,27
103938,4.293,113.953,-2.288,81.984,13.908,1001.254,13702.500,-4200.000,-752.500,24.508,-0.14307,0.31073,0.39856,27
103974,4.293,113.953,-2.288,108.214,11.590,1003.816,6265.000,-16327.500,1907.500,24.492,-0.14526,0.30927,0.39801,27
103998,4.293,113.953,-2.288,122.244,9.882,994.544,-1627.500,-1382.500,-8767.500,24.492,-0.14716,0.30865,0.39801,27
104027,4.291,113.953,-2.288,120.536,22.814,1005.036,1645.000,-6422.500,-2152.500,24.484,-0.14856,0.30798,0.39648,27
104051,4.291,113.953,-2.288,113.582,36.356,998.082,-1522.500,-1435.000,-3745.000,24.477,-0.14917,0.30884,0.39722,27
104086,4.291,113.953,-2.288,109.312,41.846,990.518,-5897.500,4340.000,-4882.500,24.492,-0.14917,0.30914,0.39514,27
104110,4.291,113.953,-2.288,110.532,48.800,1008.818,3622.500,-315.000,-4620.000,24.477,-0.14984,0.30835,0.39606,27
104139,4.291,113.953,-2.288,111.386,50.020,1017.724,8155.000,-9922.500,1995.000,24.492,-0.15100,0.30646,0.39581,27
104163,4.291,113.953,-2.288,117.608,46.482,1014.918,2800.000,-2852.500,315.000,24.492,-0.15094,0.30615,0.39587,27
104198,4.291,113.953,-2.288,132.004,38.918,1014.552,3867.500,-4760.000,1942.500,24.492,-0.15125,0.30536,0.39557,27
104222,4.291,113.953,-2.288,142.008,39.162,1009.916,2100.000,-1417.500,997.500,24.492,-0.15198,0.30487,0.39624,27
104251,4.293,113.953,-2.288,150.548,38.552,1000.156,-910.000,-7927.500,1120.000,24.492,-0.15344,0.30536,0.39453,27
104275,4.293,113.953,-2.288,150.670,41.236,986.614,-6772.500,-8120.000,1592.500,24.484,-0.15497,0.30609,0.39429,27
104310,4.293,113.953,-2.288,147.132,45.628,974.170,-8487.500,-23642.500,2747.500,24.516,-0.15820,0.30902,0.39014,27
104334,4.293,113.953,-2.288,135.908,40.138,956.602,-18340.000,-9415.000,6282.500,24.500,-0.15845,0.31213,0.38910,27
104363,4.293,113.953,-2.288,137.494,39.772,982.344,-12670.000,-13125.000,437.500,24.516,-0.16095,0.31500,0.38635,27
104387,4.293,113.953,-2.288,135.420,45.750,996.740,-8802.500,-3762.500,-595.000,24.484,-0.16010,0.31482,0.38672,27
104416,4.293,113.953,-2.288,149.816,47.336,1024.068,11025.000,-4672.500,3377.500,24.492,-0.16162,0.31287,0.38654,27
104440,4.293,113.953,-2.288,172.874,38.674,1028.094,9467.500,-10080.000,3255.000,24.516,-0.16467,0.31012,0.38745,27
104475,4.293,113.953,-2.288,195.200,36.356,1026.996,15575.000,-37712.500,3500.000,24.516,-0.17230,0.30798,0.38495,27
104499,4.294,113.953,-2.288,194.224,28.792,990.396,-10045.000,-27177.500,9467.500,24.492,-0.17419,0.31067,0.38324,27
104528,4.294,113.953,-2.288,187.148,21.228,960.872,-17622.500,22610.000,-3290.000,24.492,-0.16907,0.31323,0.38214,27
104552,4.294,113.953,-2.288,192.028,25.254,976.366,-5932.500,26512.500,-9642.500,24.492,-0.16925,0.31433,0.38287,27
104587,4.294,113.953,-2.288,175.314,34.404,971.120,-16187.500,420.000,6282.500,24.492,-0.16779,0.31744,0.38043,27
104611,4.294,113.953,-2.288,164.944,36.722,972.706,-11217.500,6492.500,4847.500,24.516,-0.16669,0.32037,0.37988,27
104640,4.294,113.953,-2.288,172.630,34.404,996.618,-12967.500,-4392.500,9642.500,24.492,-0.16638,0.32227,0.37769,27
104664,4.294,113.953,-2.288,181.536,33.184,1020.896,3500.000,-13510.000,13440.000,24.492,-0.16675,0.32214,0.37854,27
104698,4.294,113.953,-2.288,190.686,23.424,1010.892,7245.000,5110.000,1540.000,24.484,-0.16486,0.32208,0.37817,27
104722,4.294,113.953,-2.288,199.592,16.226,1005.280,3377.500,16957.500,-2345.000,24.492,-0.16418,0.32117,0.38013,27
104751,4.291,113.953,-2.288,212.890,12.200,1013.942,717.500,-2730.000,-3045.000,24.500,-0.16547,0.32104,0.37909,27
104775,4.291,113.953,-2.288,208.376,14.762,1016.016,3202.500,-5617.500,-2030.000,24.508,-0.16541,0.32050,0.37946,27
104809,4.291,113.953,-2.288,197.884,20.496,1007.720,-1225.000,560.000,2327.500,24.500,-0.16534,0.32098,0.37878,27
104833,4.291,113.953,-2.288,200.690,20.252,1007.598,-2555.000,-1190.000,840.000,24.500,-0.16595,0.32159,0.37958,27
104862,4.291,113.953,-2.288,204.960,15.494,1009.672,280.000,-5600.000,-210.000,24.500,-0.16736,0.32135,0.37817,27
104886,4.291,113.953,-2.288,205.448,12.322,1008.330,2240.000,-2607.500,35.000,24.508,-0.16699,0.32080,0.37939,27
104922,4.291,113.953,-2.288,210.816,6.466,999.668,-1715.000,-1015.000,-245.000,24.492,-0.16705,0.32147,0.37775,27
104946,4.291,113.953,-2.288,213.988,2.440,996.252,-3132.500,892.500,-2695.000,24.508,-0.16730,0.32141,0.37811,27
104975,4.291,113.953,-2.288,214.720,-3.904,997.350,-1242.500,2765.000,-2485.000,24.508,-0.16693,0.32135,0.37793,27
104999,4.293,113.953,-2.288,215.696,-7.564,1001.376,2485.000,-2555.000,-1592.500,24.492,-0.16730,0.32166,0.37927,27
105028,4.293,113.953,-2.288,213.744,-7.198,991.616,-3290.000,7140.000,-1872.500,24.508,-0.16547,0.32184,0.37817,27
105052,4.293,113.953,-2.288,208.864,-5.124,989.420,-3902.500,12775.000,-3780.000,24.500,-0.16376,0.32220,0.37903,27
105087,4.293,113.953,-2.288,195.810,-4.026,1005.158,2992.500,2677.500,-2082.500,24.508,-0.16443,0.32037,0.37988,27
105111,4.293,113.953,-2.288,174.094,-2.684,1023.092,22592.500,-7490.000,210.000,24.508,-0.16571,0.31604,0.38220,27
105140,4.293,113.953,-2.288,146.644,1.098,1020.164,30292.500,-577.500,-5880.000,24.484,-0.16644,0.30963,0.38477,27
105164,4.293,113.953,-2.288,124.440,5.368,1028.582,29277.500,-10272.500,-2467.500,24.500,-0.16876,0.30505,0.38733,27
105199,4.293,113.953,-2.288,88.206,6.100,1019.188,34387.500,4865.000,5372.500,24.523,-0.16559,0.29919,0.39142,27
105223,4.293,113.953,-2.288,76.372,3.416,999.668,17377.500,27370.000,18217.500,24.516,-0.16132,0.29974,0.39404,27
105252,4.291,113.953,-2.288,85.278,1.830,990.762,-20370.000,29190.000,26460.000,24.516,-0.15259,0.30542,0.39392,27
105276,4.291,113.953,-2.288,87.474,2.196,1001.864,-11900.000,29925.000,26530.000,24.500,-0.14587,0.30554,0.39648,27
105311,4.291,113.953,-2.288,102.236,3.172,1018.944,25882.500,26477.500,14472.500,24.508,-0.13788,0.30164,0.39990,27
105335,4.291,113.953,-2.288,110.044,11.224,1019.188,14140.000,3272.500,24640.000,24.500,-0.13501,0.30176,0.40045,27
105364,4.291,113.953,-2.288,99.064,20.130,1007.476,-3762.500,20475.000,28000.000,24.539,-0.12714,0.30353,0.40100,27
105388,4.291,113.953,-2.288,101.748,23.668,1009.306,15435.000,33145.000,18322.500,24.500,-0.12195,0.30151,0.40332,27
105423,4.291,113.953,-2.288,123.586,22.692,1017.236,8365.000,105.000,16992.500,24.492,-0.12073,0.30133,0.40326,27
105447,4.291,113.953,-2.288,139.812,26.474,1030.656,-315.000,-22872.500,22942.500,24.500,-0.12292,0.30109,0.40381,27
105476,4.291,113.953,-2.288,128.466,33.672,1023.946,17150.000,-8732.500,26390.000,24.484,-0.11908,0.29767,0.40564,27
105500,4.291,113.953,-2.288,136.152,31.476,1001.376,24605.000,22540.000,8557.500,24.531,-0.11591,0.29474,0.40894,27
105535,4.291,113.953,-2.288,158.356,37.088,996.862,-472.500,3780.000,5757.500,24.516,-0.11420,0.29584,0.40820,27
105559,4.291,113.953,-2.288,167.018,37.576,997.838,-8557.500,5285.000,2957.500,24.508,-0.11438,0.29620,0.40851,27
105588,4.291,113.953,-2.288,172.508,38.186,1006.256,17150.000,8207.500,-23292.500,24.492,-0.11475,0.29187,0.41022,27
105612,4.291,113.953,-2.288,152.988,42.212,1001.132,27037.500,8995.000,-20825.000,24.516,-0.11029,0.28815,0.41339,27
105641,4.291,113.953,-2.288,121.390,48.312,989.542,9940.000,35525.000,9590.000,24.500,-0.10229,0.28711,0.41449,27
105665,4.291,113.953,-2.288,128.222,50.996,1005.280,10395.000,15872.500,8540.000,24.508,-0.10138,0.28522,0.41699,27
105699,4.291,113.953,-2.288,139.690,63.318,1024.678,18200.000,-12530.000,717.500,24.516,-0.10370,0.28192,0.41565,27
105723,4.291,113.953,-2.288,127.002,70.394,1000.034,-6632.500,-3237.500,455.000,24.500,-0.10278,0.28430,0.41504,27
105752,4.293,113.953,-2.288,142.496,74.664,997.472,-19285.000,11025.000,227.500,24.508,-0.10284,0.28668,0.41260,27
105776,4.293,113.953,-2.288,155.184,82.594,1018.700,-4025.000,-21665.000,-2870.000,24.508,-0.10858,0.28656,0.41229,28
105812,4.293,113.953,-2.288,112.240,102.968,1002.230,-4200.000,-13037.500,21682.500,24.500,-0.10529,0.29016,0.41199,27
105836,4.293,113.953,-2.288,107.238,100.772,968.436,-24640.000,43365.000,13230.000,24.516,-0.09924,0.29230,0.41193,28
105865,4.293,113.953,-2.288,148.108,103.090,1025.776,13912.500,-18847.500,5740.000,24.477,-0.10486,0.28906,0.41211,27
105889,4.293,113.953,-2.288,146.278,108.580,1020.042,19337.500,-28805.000,16012.500,24.516,-0.10516,0.28680,0.41370,28
105924,4.293,113.953,-2.288,134.566,103.212,985.028,7052.500,19792.500,13912.500,24.477,-0.09821,0.28571,0.41516,27
105948,4.293,113.953,-2.288,143.472,100.772,981.246,5477.500,26180.000,6895.000,24.508,-0.09460,0.28577,0.41553,28
105977,4.293,113.953,-2.288,163.236,110.776,996.496,-2397.500,2257.500,12495.000,24.508,-0.09241,0.28760,0.41437,28
106001,4.294,113.953,-2.288,171.410,112.240,992.348,-11445.000,-472.500,17745.000,24.516,-0.08936,0.29004,0.41345,28
106036,4.294,113.953,-2.288,163.724,105.286,974.902,-10920.000,37695.000,6772.500,24.508,-0.07843,0.29285,0.41296,27
106060,4.294,113.953,-2.288,155.184,107.360,987.224,-840.000,32777.500,7612.500,24.508,-0.07373,0.29211,0.41394,28
106089,4.294,113.953,-2.288,156.648,110.776,1004.548,3412.500,6475.000,11427.500,24.500,-0.07184,0.29272,0.41370,27
106113,4.294,113.953,-2.288,172.752,107.116,1011.258,-6230.000,-10780.000,8417.500,24.492,-0.07330,0.29401,0.41290,28
106148,4.294,113.953,-2.288,172.996,95.160,992.958,-11515.000,11480.000,-297.500,24.484,-0.06952,0.29633,0.41180,27
106172,4.294,113.953,-2.288,174.704,89.304,993.324,350.000,14560.000,-6755.000,24.500,-0.06842,0.29614,0.41241,28
106201,4.294,113.953,-2.288,158.722,87.962,991.006,-9030.000,8487.500,-1417.500,24.484,-0.06592,0.29944,0.41132,28
106225,4.294,113.953,-2.288,131.150,85.400,992.592,-16380.000,16117.500,-1312.500,24.508,-0.06268,0.30164,0.41040,28
106261,4.293,113.953,-2.288,107.360,77.958,1009.062,-9887.500,5495.000,472.500,24.508,-0.06171,0.30353,0.40961,27
106284,4.293,113.953,-2.288,100.894,75.396,1023.336,822.500,-12022.500,1627.500,24.508,-0.06396,0.30328,0.41003,28
106313,4.293,113.953,-2.288,76.128,74.908,1014.064,-1435.000,-6405.000,5757.500,24.477,-0.06512,0.30444,0.40881,27
106337,4.293,113.953,-2.288,77.592,71.370,1009.916,-13702.500,-9187.500,1505.000,24.508,-0.06665,0.30811,0.40698,28
106366,4.293,113.953,-2.288,67.344,67.832,1004.304,-28577.500,6440.000,11270.000,24.484,-0.06311,0.31464,0.40405,28
106390,4.293,113.953,-2.288,59.780,64.660,992.104,-31465.000,30555.000,6947.500,24.484,-0.05780,0.31934,0.40234,28
106425,4.293,113.953,-2.288,70.272,53.192,1013.942,-10377.500,8522.500,-4392.500,24.492,-0.05719,0.32135,0.40112,27
106449,4.293,113.953,-2.288,64.904,45.750,1033.462,12827.500,-19967.500,-4742.500,24.477,-0.06165,0.31830,0.40253,28
106478,4.293,113.953,-2.288,58.804,41.968,1031.388,13842.500,-23310.000,-4007.500,24.516,-0.06726,0.31580,0.40265,28
106502,4.293,113.953,-2.288,58.804,40.260,1028.216,7507.500,-22277.500,-4795.000,24.516,-0.07080,0.31427,0.40454,28
106537,4.293,113.953,-2.288,60.024,38.308,1019.676,8312.500,-15435.000,-6370.000,24.500,-0.07471,0.31274,0.40417,28
106561,4.293,113.953,-2.288,56.364,40.016,1015.528,1487.500,-13002.500,-1820.000,24.516,-0.07654,0.31293,0.40466,28
106590,4.293,113.953,-2.288,59.048,39.040,1015.040,-2642.500,-13090.000,-630.000,24.508,-0.07941,0.31390,0.40326,28
106614,4.293,113.953,-2.288,66.002,36.356,1014.552,-437.500,-11322.500,-2397.500,24.492,-0.08099,0.31335,0.40375,28
106648,4.293,113.953,-2.288,71.248,37.210,1008.208,4410.000,-1837.500,-840.000,24.531,-0.08118,0.31226,0.40332,28
106672,4.293,113.953,-2.288,74.908,36.722,1003.084,332.500,4147.500,-3167.500,24.516,-0.08014,0.31281,0.40424,28
106701,4.293,113.953,-2.288,77.714,36.600,1004.304,-3640.000,3307.500,-3727.500,24.492,-0.08038,0.31348,0.40387,28
106725,4.293,113.953,-2.288,73.444,39.040,1009.916,-2362.500,-927.500,52.500,24.492,-0.08020,0.31445,0.40405,28
106760,4.294,113.953,-2.288,73.810,42.700,1007.720,-8365.000,-980.000,5880.000,24.492,-0.07959,0.31598,0.40216,28
106784,4.294,113.953,-2.288,78.934,41.968,1008.452,-4112.500,70.000,3517.500,24.492,-0.07935,0.31708,0.40259,28
106813,4.294,113.953,-2.288,81.984,38.918,1005.768,-5162.500,3885.000,1102.500,24.523,-0.07837,0.31787,0.40179,28
106837,4.294,113.953,-2.288,83.082,36.112,1010.404,-1977.500,-805.000,927.500,24.500,-0.07941,0.31824,0.40167,28
106871,4.294,113.953,-2.288,83.692,31.354,1019.920,7262.500,-11550.000,3692.500,24.508,-0.08136,0.31683,0.40186,28
106895,4.294,113.953,-2.288,85.766,28.060,1011.868,8522.500,-6300.000,4165.000,24.500,-0.08105,0.31580,0.40289,28
106924,4.294,113.953,-2.288,89.304,25.864,1001.376,-455.000,9695.000,-1207.500,24.484,-0.07941,0.31598,0.40216,28
106948,4.294,113.953,-2.288,93.208,24.766,1003.084,1137.500,8487.500,-4445.000,24.516,-0.07751,0.31549,0.40314,28
106977,4.294,113.953,-2.288,88.572,26.352,1007.720,2310.000,5530.000,-2992.500,24.477,-0.07727,0.31476,0.40259,28
107001,4.295,113.953,-2.288,85.766,28.548,1012.966,4270.000,-227.500,-2100.000,24.516,-0.07764,0.31409,0.40350,28
107036,4.295,113.953,-2.288,81.740,31.842,1013.332,717.500,-1960.000,-245.000,24.508,-0.07794,0.31427,0.40295,28
107060,4.295,113.953,-2.288,81.496,32.940,1011.990,-647.500,-1172.500,-1172.500,24.500,-0.07794,0.31458,0.40350,28
107089,4.295,113.953,-2.288,83.814,32.696,1011.136,-1207.500,-210.000,-1925.000,24.500,-0.07831,0.31427,0.40228,28
107113,4.295,113.953,-2.288,84.180,33.550,1014.674,4952.500,-4917.500,-402.500,24.508,-0.07886,0.31366,0.40356,28
107148,4.295,113.953,-2.288,84.058,34.526,1007.232,-507.500,2537.500,175.000,24.508,-0.07874,0.31372,0.40344,28
107172,4.295,113.953,-2.288,84.912,33.916,1007.110,-2205.000,3552.500,-1627.500,24.516,-0.07867,0.31366,0.40399,28
107201,4.295,113.953,-2.288,83.814,34.404,1016.870,4445.000,-7472.500,-595.000,24.500,-0.07977,0.31299,0.40344,28
107225,4.295,113.953,-2.288,83.570,35.380,1017.114,6807.500,-8732.500,-245.000,24.500,-0.08081,0.31226,0.40430,28
107260,4.294,113.953,-2.288,85.278,35.868,1006.744,1575.000,3255.000,-3937.500,24.500,-0.08014,0.31165,0.40417,28
107284,4.294,113.953,-2.288,84.424,36.966,1006.988,-1942.500,4550.000,-2537.500,24.508,-0.07983,0.31183,0.40466,28
107313,4.294,113.953,-2.288,84.424,37.332,1012.722,2257.500,-2397.500,-1207.500,24.484,-0.08051,0.31116,0.40387,28
107337,4.294,113.953,-2.288,84.180,37.942,1012.600,2677.500,-3307.500,-1592.500,24.492,-0.08087,0.31158,0.40466,28
107372,4.294,113.953,-2.288,84.912,37.576,1006.744,-1260.000,4042.500,-4427.500,24.508,-0.07990,0.31226,0.40344,28
107396,4.294,113.953,-2.288,85.644,36.722,1003.816,-10045.000,7700.000,-3465.000,24.492,-0.07831,0.31482,0.40350,28
107425,4.294,113.953,-2.288,86.620,35.258,1003.328,-19477.500,7490.000,-6370.000,24.508,-0.07843,0.31824,0.40027,28
107449,4.294,113.953,-2.288,81.618,35.014,1015.650,-11182.500,-4025.000,-7122.500,24.508,-0.08057,0.31921,0.40082,28
107478,4.294,113.953,-2.288,77.470,34.892,1026.752,2222.500,-20125.000,717.500,24.516,-0.08398,0.31854,0.40015,28
107502,4.293,113.953,-2.288,84.912,31.354,1016.992,4077.500,-11235.000,-700.000,24.523,-0.08508,0.31763,0.40149,28
107537,4.293,113.953,-2.288,88.084,29.768,1009.184,8610.000,280.000,-3080.000,24.523,-0.08557,0.31598,0.40155,28
107561,4.293,113.953,-2.288,90.158,28.304,1004.792,5057.500,6562.500,-5705.000,24.500,-0.08502,0.31512,0.40253,28
107590,4.293,113.953,-2.288,88.572,29.890,1011.746,5057.500,-3132.500,-2502.500,24.516,-0.08527,0.31451,0.40295,28
107614,4.293,113.953,-2.288,85.400,30.744,1011.136,1470.000,-1785.000,-1942.500,24.508,-0.08582,0.31445,0.40314,28
107650,4.293,113.953,-2.288,85.766,31.598,1011.746,-3640.000,-4095.000,367.500,24.516,-0.08728,0.31482,0.40247,28
107674,4.293,113.953,-2.288,91.256,31.842,1009.916,787.500,-682.500,-1120.000,24.523,-0.08673,0.31433,0.40247,28
107703,4.293,113.953,-2.288,93.208,32.696,1008.330,3955.000,840.000,-1925.000,24.500,-0.08667,0.31384,0.40247,28
107727,4.293,113.953,-2.288,91.866,33.428,1008.818,2292.500,1312.500,-1680.000,24.578,-0.08667,0.31348,0.40228,28
107761,4.294,113.953,-2.288,91.378,33.184,1012.112,1172.500,-3150.000,-717.500,24.520,-0.08820,0.31323,0.40186,28
107785,4.294,113.953,-2.288,92.476,32.452,1012.356,2432.500,-4550.000,-2047.500,24.539,-0.08832,0.31342,0.40277,28
107814,4.294,113.953,-2.288,90.646,34.404,1009.428,-2135.000,-2187.500,297.500,24.516,-0.08881,0.31451,0.40112,28
107838,4.294,113.953,-2.288,92.842,34.282,1006.988,-6580.000,717.500,1050.000,24.539,-0.08777,0.31506,0.40106,28
107872,4.294,113.953,-2.288,98.210,33.062,1006.012,385.000,3710.000,-2030.000,24.543,-0.08685,0.31512,0.40137,28
107896,4.294,113.953,-2.288,97.844,33.306,1007.232,2205.000,3150.000,-1767.500,24.535,-0.08685,0.31506,0.40161,28
107925,4.294,113.953,-2.288,93.452,34.404,1008.452,-1067.500,2082.500,945.000,24.531,-0.08655,0.31537,0.40112,28
107949,4.294,113.953,-2.288,92.842,33.794,1009.916,-2695.000,-1207.500,2240.000,24.492,-0.08588,0.31555,0.40118,28
107984,4.294,113.953,-2.288,93.696,31.232,1009.916,-2222.500,0.000,1225.000,24.523,-0.08563,0.31677,0.40063,28
108008,4.293,113.953,-2.288,95.404,29.036,1011.380,35.000,-2450.000,1575.000,24.516,-0.08618,0.31641,0.40051,28
108037,4.293,113.953,-2.288,96.746,29.280,1011.502,875.000,-5337.500,2082.500,24.508,-0.08728,0.31635,0.40070,28
108061,4.293,113.953,-2.288,97.356,29.890,1012.722,3780.000,-8680.000,3220.000,24.508,-0.08838,0.31573,0.40137,28
108090,4.293,113.953,-2.288,93.208,31.476,1010.770,2362.500,-2345.000,910.000,24.508,-0.08838,0.31470,0.40118,28
108114,4.293,113.953,-2.288,94.062,31.720,1012.722,4410.000,-3622.500,-35.000,24.516,-0.08929,0.31384,0.40186,28
108149,4.293,113.953,-2.288,100.162,31.232,1010.770,11427.500,70.000,-3307.500,24.500,-0.08881,0.31104,0.40338,28
108173,4.293,113.953,-2.288,100.040,32.574,1009.916,11777.500,227.500,-1330.000,24.508,-0.09033,0.30957,0.40411,28
108202,4.293,113.953,-2.288,97.234,34.404,1008.086,4357.500,1400.000,-1505.000,24.523,-0.08875,0.30890,0.40363,28
108226,4.293,113.953,-2.288,95.892,36.966,1011.014,1960.000,-3132.500,1750.000,24.543,-0.08911,0.30914,0.40448,28
108261,4.293,113.953,-2.288,97.844,38.308,1010.404,-1015.000,-3990.000,840.000,24.500,-0.08948,0.30884,0.40411,28
108285,4.293,113.953,-2.288,98.332,39.284,1008.208,-2327.500,-2275.000,1365.000,24.500,-0.08954,0.30988,0.40375,28
108314,4.293,113.953,-2.288,99.552,41.236,1006.988,-3955.000,1015.000,1067.500,24.539,-0.08972,0.31024,0.40320,28
108338,4.293,113.953,-2.288,100.650,43.188,1009.794,1995.000,-2135.000,735.000,24.531,-0.08984,0.30994,0.40369,28
108373,4.293,113.953,-2.288,100.772,45.140,1006.744,-525.000,1137.500,542.500,24.516,-0.08875,0.31049,0.40289,28
108397,4.293,113.953,-2.288,101.260,44.286,1007.354,-3342.500,840.000,420.000,24.543,-0.08936,0.31104,0.40338,28
108426,4.293,113.953,-2.288,102.236,42.212,1012.112,3010.000,-4410.000,-542.500,24.523,-0.08972,0.31024,0.40277,28
108450,4.293,113.953,-2.288,102.724,41.114,1009.428,4182.500,-1015.000,-612.500,24.484,-0.08899,0.31030,0.40381,28
108485,4.293,113.953,-2.288,104.554,40.016,1003.328,-2537.500,5092.500,-1470.000,24.543,-0.08807,0.31042,0.40314,28
108509,4.294,113.953,-2.288,104.920,38.674,1007.232,-1190.000,2957.500,-2415.000,24.516,-0.08807,0.31079,0.40381,28
108538,4.294,113.953,-2.288,104.188,39.772,1012.112,3920.000,-3990.000,-805.000,24.516,-0.08905,0.31018,0.40356,28
108562,4.294,113.953,-2.288,102.114,42.090,1007.598,35.000,-507.500,735.000,24.539,-0.08838,0.30994,0.40381,28
108592,4.294,113.953,-2.288,102.358,41.846,1003.938,-3902.500,6615.000,-1312.500,24.500,-0.08691,0.31128,0.40314,28
108616,4.294,113.953,-2.288,103.090,42.700,1010.038,1767.500,52.500,-1067.500,24.508,-0.08740,0.31055,0.40399,28
108650,4.294,113.953,-2.288,100.284,44.652,1009.916,1907.500,-1680.000,1452.500,24.508,-0.08716,0.31055,0.40271,28
108674,4.294,113.953,-2.288,99.308,44.164,1010.648,1190.000,-1015.000,1697.500,24.523,-0.08716,0.31024,0.40417,28
108703,4.294,113.953,-2.288,97.600,42.700,1010.404,700.000,-1155.000,3010.000,24.523,-0.08704,0.31042,0.40295,28
108727,4.294,113.953,-2.288,99.430,40.504,1008.940,857.500,910.000,1697.500,24.539,-0.08655,0.31036,0.40417,28
108761,4.295,113.953,-2.288,102.724,39.040,1007.964,2205.000,2677.500,-595.000,24.523,-0.08563,0.30994,0.40295,28
108785,4.295,113.953,-2.288,101.992,38.796,1009.184,2450.000,542.500,-1260.000,24.516,-0.08545,0.30933,0.40381,28
108814,4.295,113.953,-2.288,96.380,40.260,1010.160,-910.000,-367.500,-1592.500,24.508,-0.08655,0.30957,0.40399,28
108838,4.295,113.953,-2.288,95.648,41.968,1011.136,-1190.000,-1802.500,-1575.000,24.508,-0.08643,0.31000,0.40417,28
108873,4.295,113.953,-2.288,95.770,43.432,1010.038,70.000,-1470.000,-542.500,24.508,-0.08630,0.31000,0.40350,28
108897,4.295,113.953,-2.288,98.210,42.944,1007.110,-840.000,2397.500,-2625.000,24.531,-0.08618,0.31030,0.40381,28
108926,4.295,113.953,-2.288,98.088,42.456,1006.866,-385.000,4515.000,-3885.000,24.523,-0.08569,0.31055,0.40283,28
108950,4.295,113.953,-2.288,98.210,38.064,1008.208,1365.000,5407.500,-6352.500,24.508,-0.08527,0.30975,0.40405,28
108985,4.295,113.953,-2.288,99.064,32.696,1011.868,9852.500,8610.000,-8925.000,24.539,-0.08319,0.30652,0.40564,28
109009,4.295,113.953,-2.288,98.942,28.670,1009.184,17640.000,17640.000,-10902.500,24.508,-0.08160,0.30304,0.40814,28
109038,4.295,113.953,-2.288,87.718,24.278,999.424,13545.000,12180.000,1645.000,24.500,-0.07733,0.30005,0.40845,28
109062,4.295,113.953,-2.288,90.524,23.424,994.544,8610.000,21980.000,-8470.000,24.500,-0.07452,0.29901,0.40955,28
109091,4.295,113.953,-2.288,90.036,28.426,989.908,-7612.500,23555.000,-19600.000,24.500,-0.07104,0.29871,0.40961,28
109115,4.295,113.953,-2.288,67.832,42.212,1009.306,14822.500,23695.000,-31430.000,24.508,-0.07019,0.29565,0.41174,28
109150,4.295,113.953,-2.288,32.208,57.706,1008.818,9590.000,8697.500,-4427.500,24.543,-0.06915,0.29309,0.41284,28
109174,4.295,113.953,-2.288,11.102,62.830,1018.456,29925.000,-25690.000,35052.500,24.488,-0.08026,0.27679,0.41827,28
109203,4.295,113.953,-2.288,19.276,62.708,1005.890,126017.500,-66815.000,14980.000,24.516,-0.09015,0.24426,0.42834,28
109227,4.295,113.953,-2.288,41.846,88.206,1021.140,170625.000,-42752.500,-13790.000,24.516,-0.09937,0.21667,0.43475,28
109262,4.293,113.953,-2.288,68.808,150.304,1006.988,62755.000,-30922.500,-1190.000,24.512,-0.10651,0.20520,0.43567,28
109286,4.293,113.953,-2.288,99.430,175.924,981.734,-16205.000,-8995.000,6947.500,24.531,-0.10577,0.20972,0.43555,28
109315,4.293,113.953,-2.288,113.948,186.538,948.062,-38237.500,26827.500,-245.000,24.512,-0.09833,0.21704,0.43408,28
109339,4.293,113.953,-2.288,105.042,200.934,945.256,-24377.500,47232.500,-12845.000,24.555,-0.08887,0.21942,0.43518,28
109374,4.293,113.953,-2.288,82.472,221.064,949.892,-735.000,68652.500,-19180.000,24.523,-0.07233,0.21954,0.43610,28
109398,4.293,113.953,-2.288,84.912,223.992,944.036,-18235.000,57295.000,-2572.500,24.523,-0.06183,0.22534,0.43542,28
109427,4.293,113.953,-2.288,76.128,221.552,947.696,-40302.500,57417.500,-9345.000,24.531,-0.05042,0.23236,0.43347,28
109451,4.293,113.953,-2.288,64.538,224.480,971.974,-21280.000,38500.000,-13702.500,24.523,-0.04498,0.23950,0.43176,28
109487,4.293,113.953,-2.288,37.820,230.702,996.618,-19775.000,4620.000,9327.500,24.531,-0.04242,0.24518,0.42993,28
109511,4.295,113.953,-2.288,28.792,225.212,997.594,-16187.500,2835.000,10377.500,24.555,-0.04327,0.24866,0.42859,28
109540,4.295,113.953,-2.288,23.546,212.402,996.862,-18917.500,-7402.500,-6160.000,24.543,-0.04523,0.25354,0.42633,28
109564,4.295,113.953,-2.288,22.204,213.256,992.836,-26477.500,-11585.000,507.500,24.539,-0.04608,0.25952,0.42529,28
109599,4.295,113.953,-2.288,-4.270,205.936,989.298,-32987.500,-1487.500,21612.500,24.527,-0.04504,0.26788,0.42114,28
109623,4.295,113.953,-2.288,-1.342,191.540,993.934,-30187.500,-6247.500,9345.000,24.516,-0.04547,0.27258,0.41986,28
109652,4.295,113.953,-2.288,1.830,178.242,1003.572,-9100.000,-2905.000,-3482.500,24.531,-0.04602,0.27472,0.41797,28
109676,4.295,113.953,-2.288,-5.490,172.630,997.716,-19022.500,-1452.500,3027.500,24.543,-0.04535,0.27942,0.41681,28
109721,4.295,113.953,-2.288,-9.760,149.694,993.690,-46095.000,-910.000,10745.000,24.535,-0.04370,0.29407,0.40967,28
109745,4.294,113.953,-2.288,-10.492,141.398,999.058,-34947.500,6755.000,9065.000,24.539,-0.04260,0.29822,0.40790,28
109774,4.294,113.953,-2.288,-3.538,132.492,1007.110,-16222.500,1417.500,-5442.500,24.543,-0.04388,0.30206,0.40558,28
109798,4.294,113.953,-2.288,-2.684,123.220,1004.426,-24657.500,-8802.500,-10955.000,24.523,-0.04608,0.30847,0.40326,28
109827,4.294,113.953,-2.288,-6.710,111.508,1003.816,-36802.500,-8610.000,-4025.000,24.512,-0.04773,0.31482,0.39966,28
109851,4.294,113.953,-2.288,-5.246,98.820,1008.940,-25497.500,-10237.500,-6492.500,24.531,-0.04840,0.31964,0.39746,28
109885,4.294,113.953,-2.288,-3.172,81.008,1014.064,-15435.000,-7367.500,-5932.500,24.520,-0.05103,0.32397,0.39459,28
109909,4.294,113.953,-2.288,-3.050,74.420,1013.942,-17342.500,-10570.000,-6142.500,24.516,-0.05280,0.32745,0.39270,28
109938,4.294,113.953,-2.288,-1.586,66.124,1008.818,-43855.000,-18252.500,-227.500,24.559,-0.05615,0.33740,0.38733,28
109962,4.294,113.953,-2.288,7.198,50.996,1006.012,-57592.500,-20702.500,-10237.500,24.605,-0.05981,0.34326,0.38409,28
109997,4.293,113.953,-2.288,2.684,30.988,1027.850,6685.000,-20685.000,5985.000,24.535,-0.06421,0.34344,0.38275,28
110021,4.293,113.953,-2.288,10.858,17.690,1019.432,-6440.000,-23397.500,2310.000,24.527,-0.06635,0.34656,0.38165,28
110050,4.293,113.953,-2.288,18.178,5.856,1014.552,-16450.000,-3500.000,-6195.000,24.543,-0.06787,0.35004,0.37823,28
110074,4.293,113.953,-2.288,23.302,-4.026,1014.552,-17185.000,-3692.500,-20335.000,24.605,-0.06927,0.35211,0.37714,28
110109,4.293,113.953,-2.288,15.128,-13.420,1014.674,-10675.000,1522.500,-3132.500,24.582,-0.06946,0.35590,0.37445,28
110133,4.293,113.953,-2.288,32.208,-20.618,1015.528,-11130.000,-3902.500,-1225.000,24.590,-0.06989,0.35767,0.37366,28
110162,4.293,113.953,-2.288,36.478,-31.232,1011.868,-15575.000,3132.500,-11690.000,24.613,-0.06958,0.36157,0.37085,28
110186,4.293,113.953,-2.288,36.356,-37.332,1014.308,-262.500,8522.500,-2397.500,24.559,-0.06781,0.35999,0.37256,28
110221,4.293,113.953,-2.288,37.088,-46.970,1018.456,19267.500,2677.500,-1172.500,24.543,-0.06744,0.35583,0.37524,28
110245,4.293,113.953,-2.288,36.356,-48.800,1016.260,16030.000,4567.500,-770.000,24.531,-0.06683,0.35474,0.37579,28
110274,4.293,113.953,-2.288,35.014,-52.704,1013.332,1085.000,6317.500,-5250.000,24.535,-0.06653,0.35486,0.37549,28
110298,4.293,113.953,-2.288,36.112,-54.656,1013.210,-1662.500,4952.500,-10360.000,24.570,-0.06580,0.35498,0.37622,28
110333,4.293,113.953,-2.288,31.232,-53.924,1013.088,840.000,8032.500,770.000,24.551,-0.06329,0.35529,0.37573,28
110357,4.293,113.953,-2.288,26.108,-47.824,1013.576,-700.000,6860.000,17710.000,24.551,-0.06097,0.35571,0.37579,28
110387,4.293,113.953,-2.288,29.280,-53.924,1014.064,-4672.500,3255.000,13230.000,24.531,-0.05975,0.35706,0.37415,28
110411,4.293,113.953,-2.288,30.256,-61.244,1014.796,-2695.000,525.000,2012.500,24.594,-0.05927,0.35736,0.37463,28
110446,4.293,113.953,-2.288,29.036,-57.218,1015.162,-1802.500,-875.000,8802.500,24.559,-0.05823,0.35840,0.37329,28
110470,4.293,113.953,-2.288,26.596,-64.050,1014.918,-1225.000,-122.500,5110.000,24.551,-0.05719,0.35803,0.37402,28
110499,4.293,113.953,-2.288,23.668,-67.222,1014.918,2905.000,2222.500,3832.500,24.629,-0.05695,0.35785,0.37323,28
110523,4.293,113.953,-2.288,22.448,-67.100,1014.552,-87.500,2327.500,2292.500,24.551,-0.05658,0.35785,0.37494,28
110552,4.293,113.953,-2.288,21.228,-64.172,1015.406,1085.000,-455.000,4182.500,24.582,-0.05548,0.35760,0.37463,28
110576,4.293,113.953,-2.288,21.228,-66.856,1015.528,3815.000,-1120.000,3430.000,24.590,-0.05573,0.35730,0.37531,28
110610,4.293,113.953,-2.288,20.984,-68.808,1014.918,2642.500,-2187.500,-1312.500,24.605,-0.05646,0.35638,0.37463,28
110634,4.293,113.953,-2.288,20.374,-67.954,1014.674,2345.000,-2222.500,-612.500,24.582,-0.05664,0.35590,0.37561,28
110663,4.293,113.953,-2.288,19.032,-67.100,1014.186,1610.000,-227.500,-17.500,24.535,-0.05621,0.35596,0.37512,28
110687,4.293,113.953,-2.288,15.860,-63.196,1014.186,1645.000,752.500,4970.000,24.586,-0.05554,0.35602,0.37592,28
110721,4.293,113.953,-2.288,16.714,-61.122,1014.918,2275.000,-2012.500,7245.000,24.543,-0.05475,0.35553,0.37622,28
110745,4.293,113.953,-2.288,17.080,-61.122,1014.796,3027.500,-2065.000,8085.000,24.574,-0.05463,0.35535,0.37653,28
110774,4.293,113.953,-2.288,18.300,-66.368,1013.942,2432.500,-437.500,577.500,24.535,-0.05444,0.35461,0.37671,28
110798,4.293,113.953,-2.288,18.300,-66.246,1013.820,2975.000,892.500,595.000,24.539,-0.05396,0.35443,0.37720,28
110832,4.293,113.953,-2.288,17.568,-64.050,1013.088,1785.000,1452.500,332.500,24.574,-0.05353,0.35449,0.37653,28
110856,4.293,113.953,-2.288,18.178,-62.708,1013.576,367.500,-1242.500,175.000,24.551,-0.05408,0.35419,0.37732,28
110885,4.293,113.953,-2.288,18.544,-61.732,1013.820,157.500,-3465.000,-210.000,24.535,-0.05402,0.35425,0.37567,28
110909,4.293,113.953,-2.288,17.446,-61.610,1013.088,245.000,-210.000,-945.000,24.574,-0.05371,0.35443,0.37677,28
110944,4.293,113.953,-2.288,15.494,-61.000,1011.746,-2397.500,5512.500,-315.000,24.590,-0.05280,0.35474,0.37585,28
110968,4.293,113.953,-2.288,15.372,-60.756,1013.210,367.500,4550.000,1050.000,24.551,-0.05182,0.35431,0.37677,28
110997,4.294,113.953,-2.288,14.884,-59.658,1015.772,6737.500,1925.000,3500.000,24.559,-0.05188,0.35297,0.37646,28
111021,4.294,113.953,-2.288,18.544,-60.024,1015.528,1312.500,-6300.000,-1750.000,24.535,-0.05334,0.35358,0.37732,28
111050,4.294,113.953,-2.288,17.568,-59.414,1015.162,560.000,-6475.000,-2065.000,24.562,-0.05432,0.35303,0.37683,28
111074,4.294,113.953,-2.288,16.836,-58.194,1014.674,3290.000,-3360.000,-665.000,24.559,-0.05420,0.35254,0.37738,28
111109,4.294,113.953,-2.288,15.128,-56.608,1013.820,5845.000,1697.500,1225.000,24.574,-0.05389,0.35138,0.37830,28
111133,4.294,113.953,-2.288,15.128,-55.510,1013.454,4917.500,2012.500,1155.000,24.551,-0.05334,0.35107,0.37891,28
111162,4.294,113.953,-2.288,16.592,-53.802,1013.698,1662.500,-1487.500,385.000,24.516,-0.05347,0.35034,0.37848,28
111186,4.294,113.953,-2.288,17.202,-52.948,1013.576,-787.500,-3097.500,-315.000,24.578,-0.05426,0.35052,0.37854,28
111221,4.294,113.953,-2.288,16.348,-52.460,1013.210,-1225.000,-822.500,-665.000,24.555,-0.05377,0.35144,0.37781,28
111245,4.294,113.953,-2.288,16.104,-52.216,1013.820,2047.500,1417.500,52.500,24.566,-0.05298,0.35089,0.37872,28
111274,4.294,113.953,-2.288,16.470,-51.484,1013.942,2152.500,927.500,437.500,24.559,-0.05304,0.35059,0.37750,28
111298,4.294,113.953,-2.288,16.714,-50.996,1013.820,332.500,17.500,-17.500,24.566,-0.05322,0.35065,0.37885,28
111334,4.294,113.953,-2.288,17.080,-50.630,1013.942,-630.000,-1172.500,-630.000,24.566,-0.05365,0.35022,0.37781,28
111358,4.294,113.953,-2.288,16.836,-50.020,1013.820,-560.000,-822.500,-525.000,24.520,-0.05322,0.35071,0.37848,28
111387,4.294,113.953,-2.288,16.836,-49.776,1013.820,-752.500,-1085.000,-210.000,24.566,-0.05310,0.35089,0.37775,28
111411,4.294,113.953,-2.288,17.080,-50.020,1013.942,-70.000,-1417.500,-87.500,24.543,-0.05414,0.35077,0.37799,28
111446,4.294,113.953,-2.288,16.714,-50.264,1013.942,682.500,-350.000,157.500,24.551,-0.05359,0.35077,0.37732,28
111470,4.294,113.953,-2.288,16.714,-50.264,1014.064,2100.000,-70.000,402.500,24.527,-0.05334,0.35059,0.37750,28
111499,4.293,113.953,-2.288,17.324,-50.020,1014.308,1732.500,-1312.500,105.000,24.523,-0.05322,0.35083,0.37769,28
111523,4.293,113.953,-2.288,17.324,-49.776,1014.308,2047.500,-1137.500,192.500,24.578,-0.05383,0.35004,0.37872,28
111552,4.293,113.953,-2.288,17.324,-49.288,1013.820,52.500,-875.000,-437.500,24.531,-0.05341,0.35010,0.37781,28
111576,4.293,113.953,-2.288,17.202,-49.166,1013.576,-472.500,-350.000,-525.000,24.543,-0.05383,0.35065,0.37830,28
111610,4.293,113.953,-2.288,16.836,-48.800,1013.576,-945.000,630.000,35.000,24.566,-0.05389,0.35059,0.37781,28
111634,4.293,113.953,-2.288,17.202,-48.678,1013.942,-175.000,0.000,122.500,24.582,-0.05365,0.35052,0.37817,28
111663,4.293,113.953,-2.288,16.104,-46.970,1014.186,-1680.000,-840.000,4445.000,24.598,-0.05334,0.35126,0.37732,28
111687,4.293,113.953,-2.288,17.568,-49.532,1014.064,-1032.500,-787.500,-122.500,24.562,-0.05389,0.35101,0.37842,28
111721,4.293,113.953,-2.288,17.324,-50.752,1013.942,280.000,437.500,-490.000,24.527,-0.05389,0.35162,0.37756,28
111745,4.294,113.953,-2.288,17.202,-50.386,1013.942,402.500,227.500,-227.500,24.527,-0.05371,0.35156,0.37848,28
111774,4.294,113.953,-2.288,17.080,-50.264,1014.064,665.000,-192.500,52.500,24.562,-0.05377,0.35132,0.37793,28
111798,4.294,113.953,-2.288,17.202,-50.264,1014.186,420.000,-665.000,-157.500,24.555,-0.05341,0.35126,0.37885,28
111832,4.294,113.953,-2.288,16.836,-50.264,1014.064,35.000,-105.000,-35.000,24.562,-0.05383,0.35211,0.37799,28
111856,4.294,113.953,-2.288,16.836,-50.508,1014.186,210.000,-157.500,-70.000,24.559,-0.05377,0.35187,0.37927,28
111885,4.294,113.953,-2.288,17.446,-50.508,1014.186,-1102.500,-1925.000,-805.000,24.590,-0.05426,0.35278,0.37750,28
111909,4.294,113.953,-2.288,17.934,-50.630,1014.308,-1732.500,-3202.500,-1592.500,24.555,-0.05438,0.35284,0.37830,28
111944,4.294,113.953,-2.288,18.422,-51.484,1013.698,-6317.500,-3290.000,-2485.000,24.566,-0.05554,0.35455,0.37701,28
111968,4.294,113.953,-2.288,18.056,-51.972,1013.576,-7140.000,-2415.000,-2940.000,24.559,-0.05591,0.35486,0.37756,28
111997,4.293,113.953,-2.288,17.324,-53.680,1014.674,1225.000,-70.000,647.500,24.574,-0.05536,0.35449,0.37653,28
112021,4.293,113.953,-2.288,18.178,-54.168,1014.918,2712.500,-385.000,297.500,24.582,-0.05548,0.35431,0.37701,28
112056,4.293,113.953,-2.288,19.276,-54.290,1014.918,2695.000,-1837.500,-70.000,24.559,-0.05536,0.35327,0.37708,28
112080,4.293,113.953,-2.288,19.398,-54.290,1014.186,1242.500,-1277.500,-192.500,24.535,-0.05530,0.35370,0.37732,28
112109,4.293,113.953,-2.288,19.032,-54.046,1013.210,-1592.500,157.500,-210.000,24.527,-0.05530,0.35419,0.37646,28
112133,4.293,113.953,-2.288,19.154,-54.290,1013.088,-2135.000,1242.500,17.500,24.543,-0.05518,0.35461,0.37671,28
112162,4.293,113.953,-2.288,19.886,-54.778,1013.332,-3552.500,315.000,-437.500,24.598,-0.05481,0.35529,0.37579,28
112186,4.293,113.953,-2.288,20.008,-55.632,1014.064,612.500,17.500,-402.500,24.559,-0.05499,0.35486,0.37640,28
112222,4.293,113.953,-2.288,19.886,-56.486,1014.430,1260.000,-157.500,175.000,24.535,-0.05469,0.35437,0.37695,28
112246,4.293,113.953,-2.288,20.130,-56.974,1014.796,3220.000,-717.500,-157.500,24.555,-0.05450,0.35406,0.37720,28
112275,4.293,113.953,-2.288,19.886,-56.852,1014.918,4305.000,-560.000,-52.500,24.582,-0.05524,0.35297,0.37677,28
112299,4.293,113.953,-2.288,19.520,-56.486,1014.552,4112.500,262.500,-35.000,24.512,-0.05457,0.35260,0.37799,28
112334,4.293,113.953,-2.288,19.276,-55.388,1014.430,3867.500,87.500,420.000,24.605,-0.05438,0.35162,0.37842,28
112358,4.293,113.953,-2.288,19.154,-54.656,1014.064,3202.500,262.500,612.500,24.551,-0.05426,0.35077,0.37915,28
112387,4.293,113.953,-2.288,18.788,-53.192,1014.430,4917.500,647.500,1417.500,24.574,-0.05359,0.35010,0.37933,28
112411,4.293,113.953,-2.288,19.032,-52.338,1014.308,4305.000,-385.000,1627.500,24.598,-0.05341,0.35010,0.38019,28
112446,4.293,113.953,-2.288,18.544,-51.362,1014.796,5215.000,350.000,1960.000,24.551,-0.05310,0.34808,0.38037,28
112470,4.293,113.953,-2.288,18.300,-50.264,1015.406,10220.000,1382.500,2712.500,24.574,-0.05261,0.34680,0.38159,28
112499,4.293,113.953,-2.288,18.544,-48.190,1015.040,8732.500,-280.000,1855.000,24.613,-0.05267,0.34540,0.38239,28
112523,4.293,113.953,-2.288,18.300,-45.872,1014.186,3220.000,-962.500,367.500,24.559,-0.05280,0.34558,0.38300,28
112557,4.293,113.953,-2.288,17.690,-43.432,1013.332,1470.000,577.500,-52.500,24.590,-0.05292,0.34467,0.38251,28
112581,4.293,113.953,-2.288,17.446,-41.480,1013.332,560.000,875.000,-35.000,24.566,-0.05249,0.34509,0.38245,28
112610,4.293,113.953,-2.288,17.812,-40.016,1013.820,-840.000,-857.500,-157.500,24.551,-0.05212,0.34552,0.38293,28
112634,4.293,113.953,-2.288,17.690,-38.796,1014.552,1400.000,-1400.000,-140.000,24.582,-0.05237,0.34540,0.38379,28
112663,4.293,113.953,-2.288,17.446,-37.820,1014.552,1120.000,-1610.000,-367.500,24.605,-0.05310,0.34485,0.38354,28
112687,4.293,113.953,-2.288,16.836,-37.210,1014.064,647.500,52.500,-332.500,24.637,-0.05243,0.34497,0.38342,28
112721,4.293,113.953,-2.288,16.470,-36.356,1013.942,140.000,927.500,-192.500,24.598,-0.05261,0.34521,0.38330,28
112745,4.294,113.953,-2.288,16.714,-35.502,1014.186,-157.500,280.000,-227.500,24.590,-0.05231,0.34503,0.38306,28
112774,4.294,113.953,-2.288,16.836,-35.136,1014.552,-525.000,-787.500,-630.000,24.598,-0.05219,0.34497,0.38245,28
112798,4.294,113.953,-2.288,16.348,-35.136,1014.674,647.500,-175.000,-227.500,24.629,-0.05200,0.34485,0.38257,28
112832,4.294,113.953,-2.288,16.348,-34.526,1014.796,1032.500,-17.500,0.000,24.637,-0.05194,0.34473,0.38287,28
112856,4.294,113.953,-2.288,16.592,-34.160,1014.552,-1435.000,-1242.500,-630.000,24.645,-0.05212,0.34497,0.38312,28
112885,4.294,113.953,-2.288,16.592,-33.794,1014.430,-3517.500,-2222.500,-980.000,24.590,-0.05267,0.34637,0.38251,28
112909,4.294,113.953,-2.288,16.348,-33.794,1015.040,-1645.000,-1872.500,-787.500,24.590,-0.05310,0.34570,0.38269,28
112944,4.294,113.953,-2.288,15.616,-34.160,1015.406,3797.500,560.000,875.000,24.621,-0.05255,0.34473,0.38300,28
112968,4.294,113.953,-2.288,15.494,-33.916,1015.406,4165.000,1400.000,1172.500,24.637,-0.05255,0.34424,0.38397,28
112997,4.294,113.953,-2.288,15.982,-33.550,1015.528,3272.500,17.500,770.000,24.605,-0.05188,0.34344,0.38318,28
113021,4.294,113.953,-2.288,16.592,-33.184,1015.650,1802.500,-1890.000,-35.000,24.621,-0.05249,0.34381,0.38391,28
113056,4.294,113.953,-2.288,16.104,-32.696,1015.406,2450.000,-1085.000,140.000,24.613,-0.05194,0.34326,0.38385,28
113080,4.294,113.953,-2.288,15.860,-32.086,1015.162,2730.000,-245.000,0.000,24.613,-0.05219,0.34320,0.38458,28
113109,4.294,113.953,-2.288,15.738,-30.988,1014.796,1120.000,367.500,-192.500,24.652,-0.05182,0.34277,0.38385,28
113133,4.294,113.953,-2.288,15.738,-30.256,1014.796,595.000,-17.500,-385.000,24.637,-0.05182,0.34308,0.38531,28
113162,4.294,113.953,-2.288,15.860,-30.012,1015.162,700.000,-280.000,-210.000,24.660,-0.05139,0.34283,0.38434,28
113186,4.294,113.953,-2.288,15.860,-29.524,1015.162,1207.500,-560.000,-157.500,24.672,-0.05200,0.34247,0.38544,28
113222,4.294,113.953,-2.288,15.616,-29.036,1015.040,-227.500,-280.000,-385.000,24.648,-0.05176,0.34271,0.38416,28
113246,4.294,113.953,-2.288,15.738,-28.914,1015.162,507.500,-350.000,-280.000,24.637,-0.05170,0.34302,0.38513,28
113275,4.294,113.953,-2.288,15.616,-28.670,1015.162,560.000,-420.000,-367.500,24.668,-0.05176,0.34283,0.38446,28
113299,4.294,113.953,-2.288,15.738,-28.548,1015.040,315.000,-402.500,-455.000,24.605,-0.05231,0.34296,0.38501,28
113334,4.294,113.953,-2.288,15.616,-28.426,1015.284,647.500,-385.000,-332.500,24.672,-0.05206,0.34277,0.38495,28
113358,4.294,113.953,-2.288,15.616,-28.182,1015.284,1312.500,-105.000,-175.000,24.660,-0.05261,0.34253,0.38507,28
113387,4.294,113.953,-2.288,15.494,-27.938,1015.040,822.500,-52.500,-227.500,24.660,-0.05212,0.34283,0.38501,28
113411,4.294,113.953,-2.288,15.616,-27.938,1015.284,1365.000,-367.500,-297.500,24.672,-0.05231,0.34259,0.38586,28
113446,4.294,113.953,-2.288,15.494,-27.816,1015.284,1610.000,-297.500,-367.500,24.691,-0.05212,0.34235,0.38562,28
113470,4.294,113.953,-2.288,15.494,-27.572,1015.528,1750.000,-577.500,52.500,24.648,-0.05194,0.34210,0.38544,28
113499,4.293,113.953,-2.288,15.128,-27.328,1015.162,1207.500,-297.500,-315.000,24.660,-0.05243,0.34155,0.38550,28
113523,4.293,113.953,-2.288,15.128,-26.840,1015.040,280.000,-577.500,-332.500,24.598,-0.05200,0.34229,0.38550,28
113559,4.293,113.953,-2.288,14.884,-26.352,1015.040,840.000,-315.000,-245.000,24.629,-0.05145,0.34167,0.38580,28
113583,4.293,113.953,-2.288,14.884,-26.108,1015.040,1137.500,-35.000,-122.500,24.691,-0.05212,0.34143,0.38593,28
113612,4.293,113.953,-2.288,14.884,-25.864,1015.040,210.000,-280.000,-140.000,24.629,-0.05176,0.34204,0.38507,28
113636,4.293,113.953,-2.288,14.884,-25.864,1015.162,280.000,-350.000,-157.500,24.668,-0.05176,0.34186,0.38641,28
113665,4.293,113.953,-2.288,14.884,-25.498,1015.162,927.500,-752.500,-227.500,24.668,-0.05157,0.34125,0.38586,28
113689,4.293,113.953,-2.288,14.884,-25.376,1015.650,1785.000,-490.000,-210.000,24.684,-0.05157,0.34155,0.38611,28
113723,4.293,113.953,-2.288,14.518,-24.888,1015.528,2345.000,-367.500,-87.500,24.684,-0.05145,0.34100,0.38556,28
113747,4.294,113.953,-2.288,14.396,-24.400,1015.040,980.000,17.500,-245.000,24.609,-0.05170,0.34076,0.38641,28
113776,4.294,113.953,-2.288,14.396,-24.156,1015.284,1820.000,262.500,87.500,24.621,-0.05133,0.34064,0.38586,28
113800,4.294,113.953,-2.288,14.518,-23.790,1015.284,1820.000,-280.000,-70.000,24.637,-0.05145,0.34045,0.38666,28
113834,4.294,113.953,-2.288,14.396,-23.180,1015.162,1470.000,-472.500,122.500,24.590,-0.05066,0.34033,0.38678,28
113858,4.294,113.953,-2.288,14.030,-22.570,1014.796,822.500,-560.000,-17.500,24.590,-0.05157,0.34070,0.38678,28
113887,4.294,113.953,-2.288,14.030,-22.326,1014.796,577.500,-262.500,-332.500,24.672,-0.05145,0.34021,0.38593,28
113911,4.294,113.953,-2.288,13.908,-21.716,1014.918,1417.500,105.000,-297.500,24.680,-0.05121,0.34003,0.38715,28
113946,4.294,113.953,-2.288,13.786,-21.472,1014.796,1365.000,315.000,-210.000,24.687,-0.05121,0.34009,0.38647,28
113970,4.294,113.953,-2.288,13.908,-21.228,1015.040,1347.500,-577.500,-437.500,24.633,-0.05139,0.34003,0.38727,28
113999,4.291,113.953,-2.288,13.786,-20.618,1014.796,0.000,-1225.000,-542.500,24.664,-0.05109,0.33978,0.38617,28
114023,4.291,113.953,-2.288,13.176,-20.130,1014.308,-717.500,-525.000,-682.500,24.684,-0.05103,0.34033,0.38666,28
114059,4.291,113.953,-2.288,12.932,-19.886,1014.430,525.000,595.000,-385.000,24.672,-0.05060,0.33997,0.38666,28
114083,4.291,113.953,-2.288,13.054,-19.764,1014.674,507.500,262.500,-332.500,24.668,-0.05096,0.34009,0.38690,28
114112,4.291,113.953,-2.288,13.176,-19.764,1015.040,1417.500,-525.000,-262.500,24.652,-0.05090,0.33948,0.38538,28
114136,4.291,113.953,-2.288,13.054,-19.520,1015.040,1610.000,-525.000,-245.000,24.637,-0.05084,0.33936,0.38623,28
114165,4.291,113.953,-2.288,13.054,-19.276,1014.552,1015.000,-752.500,-822.500,24.660,-0.05103,0.33990,0.38617,28
114189,4.291,113.953,-2.288,12.932,-19.032,1014.552,472.500,-910.000,-577.500,24.648,-0.05133,0.33954,0.38660,28
114224,4.291,113.953,-2.288,13.054,-18.422,1014.186,-1102.500,-857.500,-682.500,24.723,-0.05109,0.33966,0.38599,28
114248,4.293,113.953,-2.288,12.932,-18.300,1014.308,-962.500,-700.000,-647.500,24.668,-0.05133,0.34015,0.38660,28
114277,4.293,113.953,-2.288,12.932,-18.422,1014.552,-87.500,-402.500,-472.500,24.652,-0.05109,0.33960,0.38538,28
114301,4.293,113.953,-2.288,12.932,-18.544,1014.674,980.000,-490.000,-332.500,24.695,-0.05054,0.33936,0.38623,28
114336,4.293,113.953,-2.288,12.932,-18.544,1014.674,787.500,-350.000,-262.500,24.703,-0.05090,0.33923,0.38562,28
114360,4.293,113.953,-2.288,12.810,-18.544,1014.674,752.500,-367.500,-245.000,24.687,-0.05072,0.33923,0.38635,28
114389,4.293,113.953,-2.288,13.054,-18.544,1014.674,157.500,-892.500,-577.500,24.633,-0.05084,0.33936,0.38550,28
114413,4.293,113.953,-2.288,13.054,-18.422,1014.796,105.000,-962.500,-577.500,24.691,-0.05072,0.33929,0.38629,28
114448,4.293,113.953,-2.288,12.932,-18.300,1014.430,-297.500,-560.000,-507.500,24.680,-0.05084,0.33917,0.38586,28
114472,4.293,113.953,-2.288,12.932,-18.544,1014.918,647.500,-297.500,-402.500,24.656,-0.05029,0.33917,0.38617,28
114501,4.293,113.953,-2.288,13.176,-18.300,1014.796,-262.500,-682.500,-542.500,24.652,-0.05060,0.33917,0.38586,28
114525,4.293,113.953,-2.288,13.176,-18.300,1014.674,-682.500,-542.500,-612.500,24.684,-0.05042,0.33966,0.38617,28
114559,4.293,113.953,-2.288,13.176,-18.544,1014.796,140.000,-560.000,-420.000,24.668,-0.05090,0.33954,0.38574,28
114583,4.293,113.953,-2.288,13.054,-18.788,1014.674,122.500,-262.500,-367.500,24.691,-0.05096,0.33978,0.38617,28
114612,4.293,113.953,-2.288,13.176,-19.032,1014.796,717.500,-472.500,-315.000,24.656,-0.05090,0.33954,0.38544,28
114636,4.293,113.953,-2.288,13.176,-18.910,1014.552,367.500,-402.500,-332.500,24.684,-0.05103,0.33966,0.38641,28
114665,4.293,113.953,-2.288,13.176,-19.032,1014.552,297.500,-507.500,-402.500,24.695,-0.05090,0.33966,0.38660,28
114689,4.293,113.953,-2.288,13.054,-19.032,1014.674,385.000,-175.000,-315.000,24.719,-0.05109,0.33966,0.38617,28
114723,4.293,113.953,-2.288,13.176,-18.910,1014.552,-385.000,-402.500,-332.500,24.703,-0.05096,0.33997,0.38605,28
114747,4.293,113.953,-2.288,13.176,-19.032,1014.796,-105.000,-892.500,-490.000,24.680,-0.05078,0.34003,0.38629,28
114776,4.293,113.953,-2.288,13.176,-19.276,1014.918,280.000,-717.500,-437.500,24.691,-0.05078,0.34003,0.38501,28
114800,4.293,113.953,-2.288,13.176,-19.398,1014.918,437.500,-770.000,-367.500,24.680,-0.05084,0.33972,0.38580,28
114834,4.293,113.953,-2.288,13.420,-19.642,1015.040,122.500,-1260.000,-560.000,24.699,-0.05078,0.33972,0.38507,28
114858,4.293,113.953,-2.288,13.298,-19.764,1014.796,70.000,-945.000,-507.500,24.668,-0.05127,0.33960,0.38647,28
114887,4.293,113.953,-2.288,13.298,-19.520,1014.918,280.000,-787.500,-315.000,24.695,-0.05133,0.34045,0.38550,28
114911,4.293,113.953,-2.288,13.542,-19.520,1015.162,1120.000,-1032.500,-262.500,24.687,-0.05103,0.33997,0.38690,28
114946,4.293,113.953,-2.288,13.176,-19.642,1015.162,2415.000,350.000,262.500,24.711,-0.05084,0.33948,0.38562,28
114970,4.293,113.953,-2.288,13.298,-19.398,1015.162,2397.500,175.000,437.500,24.648,-0.05170,0.33911,0.38666,28
114999,4.291,113.953,-2.288,13.542,-19.032,1014.918,1260.000,-420.000,-17.500,24.707,-0.05115,0.33893,0.38611,28
115023,4.291,113.953,-2.288,13.542,-18.788,1014.918,595.000,-647.500,192.500,24.730,-0.05096,0.33917,0.38641,28
115059,4.291,113.953,-2.288,13.664,-18.056,1014.918,245.000,-927.500,35.000,24.703,-0.05078,0.33881,0.38641,28
115083,4.291,113.953,-2.288,13.664,-17.812,1014.918,157.500,-1155.000,-245.000,24.711,-0.05109,0.33893,0.38672,28
115112,4.291,113.953,-2.288,13.664,-17.690,1014.796,-332.500,-962.500,-175.000,24.727,-0.05127,0.33929,0.38556,28
115136,4.291,113.953,-2.288,13.298,-17.324,1014.674,-630.000,-420.000,210.000,24.695,-0.05090,0.33917,0.38696,28
115165,4.291,113.953,-2.288,13.420,-17.568,1014.552,-140.000,157.500,560.000,24.711,-0.05096,0.33960,0.38623,28
115189,4.291,113.953,-2.288,14.030,-17.934,1014.674,-262.500,-315.000,-105.000,24.703,-0.05090,0.33936,0.38647,28
115224,4.291,113.953,-2.288,14.152,-18.300,1015.040,542.500,-157.500,-280.000,24.695,-0.05096,0.33972,0.38605,28
115248,4.294,113.953,-2.288,14.152,-18.422,1015.040,997.500,-157.500,-297.500,24.719,-0.05072,0.33954,0.38684,28
115277,4.294,113.953,-2.288,14.152,-18.300,1014.918,-35.000,-367.500,-472.500,24.711,-0.05048,0.33942,0.38544,28
115301,4.294,113.953,-2.288,14.152,-18.300,1015.040,280.000,-52.500,-280.000,24.711,-0.05084,0.33960,0.38635,28
115336,4.294,113.953,-2.288,14.152,-18.178,1015.040,-367.500,-577.500,-472.500,24.734,-0.05084,0.33978,0.38641,28
115360,4.294,113.953,-2.288,13.908,-18.544,1015.040,-350.000,-245.000,-595.000,24.703,-0.05103,0.33972,0.38647,28
115389,4.294,113.953,-2.288,13.786,-18.910,1015.284,1260.000,-157.500,-332.500,24.719,-0.05066,0.33948,0.38635,28
115413,4.294,113.953,-2.288,13.786,-18.788,1015.406,1050.000,-402.500,-262.500,24.687,-0.05054,0.33917,0.38715,28
115448,4.294,113.953,-2.288,13.786,-18.544,1015.162,472.500,-735.000,-227.500,24.719,-0.05042,0.33984,0.38647,28
115472,4.294,113.953,-2.288,13.664,-18.544,1015.162,542.500,-735.000,-455.000,24.719,-0.05103,0.33942,0.38672,28
115501,4.293,113.953,-2.288,13.542,-18.300,1015.040,542.500,-455.000,-367.500,24.703,-0.05072,0.33960,0.38647,28
115525,4.293,113.953,-2.288,13.420,-18.422,1014.918,577.500,-332.500,-315.000,24.734,-0.05127,0.33942,0.38739,28
115559,4.293,113.953,-2.288,13.420,-18.300,1014.918,595.000,-630.000,-210.000,24.656,-0.05139,0.33960,0.38666,28
115583,4.293,113.953,-2.288,13.298,-18.178,1015.040,612.500,-507.500,-105.000,24.699,-0.05103,0.33917,0.38727,28
115612,4.293,113.953,-2.288,13.420,-18.178,1015.284,1645.000,-455.000,175.000,24.703,-0.05103,0.33911,0.38666,28
115636,4.293,113.953,-2.288,13.298,-18.056,1015.162,1802.500,-210.000,87.500,24.711,-0.05084,0.33887,0.38776,28
115665,4.293,113.953,-2.288,13.420,-17.690,1014.796,1120.000,-332.500,17.500,24.680,-0.05060,0.33911,0.38818,28
115689,4.293,113.953,-2.288,13.420,-17.324,1014.552,262.500,-647.500,-227.500,24.719,-0.05084,0.33868,0.38782,28
115726,4.293,113.953,-2.288,13.664,-16.958,1014.796,507.500,-1067.500,-332.500,24.687,-0.05078,0.33862,0.38751,28
115750,4.294,113.953,-2.288,13.908,-16.836,1014.918,-87.500,-1925.000,-245.000,24.719,-0.05157,0.33917,0.38812,28
115779,4.294,113.953,-2.288,13.908,-16.714,1015.040,227.500,-1942.500,-227.500,24.664,-0.05157,0.33868,0.38672,28
115803,4.294,113.953,-2.288,14.030,-16.592,1014.796,227.500,-1697.500,-105.000,24.695,-0.05176,0.33905,0.38739,28
115837,4.294,113.953,-2.288,14.152,-16.592,1014.796,472.500,-682.500,-262.500,24.695,-0.05133,0.33899,0.38708,28
115861,4.294,113.953,-2.288,14.396,-16.714,1014.796,875.000,-612.500,-157.500,24.695,-0.05182,0.33899,0.38776,28
115890,4.294,113.953,-2.288,14.884,-16.592,1014.796,525.000,-1382.500,-192.500,24.695,-0.05139,0.33881,0.38696,28
115914,4.294,113.953,-2.288,15.128,-16.714,1014.796,875.000,-1190.000,-280.000,24.707,-0.05164,0.33899,0.38849,28
115950,4.294,113.953,-2.288,15.128,-16.470,1014.552,735.000,-542.500,-297.500,24.695,-0.05182,0.33856,0.38812,28
115974,4.294,113.953,-2.288,15.372,-16.348,1014.552,665.000,-385.000,-280.000,24.727,-0.05182,0.33826,0.38806,28
116003,4.293,113.953,-2.288,15.616,-16.104,1014.674,455.000,-577.500,0.000,24.719,-0.05121,0.33850,0.38721,28
116027,4.293,113.953,-2.288,15.616,-15.982,1014.796,595.000,-787.500,262.500,24.727,-0.05170,0.33820,0.38782,28
116061,4.293,113.953,-2.288,15.494,-15.616,1014.430,157.500,-140.000,507.500,24.687,-0.05170,0.33844,0.38715,28
116085,4.293,113.953,-2.288,15.860,-15.372,1014.308,-700.000,-227.500,-87.500,24.711,-0.05188,0.33850,0.38788,28
116114,4.293,113.953,-2.288,16.226,-15.738,1014.796,-175.000,-647.500,-507.500,24.711,-0.05170,0.33868,0.38727,28
116138,4.293,113.953,-2.288,16.592,-15.860,1014.918,-70.000,-1417.500,-822.500,24.711,-0.05182,0.33887,0.38806,28
116167,4.293,113.953,-2.288,16.958,-16.226,1015.284,-35.000,-2345.000,-577.500,24.727,-0.05194,0.33917,0.38654,28
116191,4.293,113.953,-2.288,16.836,-16.104,1015.162,105.000,-2047.500,-332.500,24.742,-0.05249,0.33875,0.38763,28
116225,4.293,113.953,-2.288,16.592,-16.104,1015.040,1592.500,-350.000,-70.000,24.711,-0.05243,0.33789,0.38733,28
116249,4.293,113.953,-2.288,16.592,-16.104,1015.040,2607.500,630.000,402.500,24.719,-0.05200,0.33832,0.38800,28
116278,4.293,113.953,-2.288,17.080,-15.860,1015.040,2135.000,367.500,315.000,24.727,-0.05188,0.33734,0.38770,28
116302,4.293,113.953,-2.288,17.324,-15.738,1015.040,1522.500,-717.500,-87.500,24.719,-0.05164,0.33740,0.38831,28
116336,4.293,113.953,-2.288,17.568,-15.128,1015.040,1330.000,-927.500,-87.500,24.719,-0.05188,0.33734,0.38812,28
116360,4.293,113.953,-2.288,17.446,-14.640,1014.796,1207.500,-385.000,35.000,24.703,-0.05194,0.33667,0.38861,28
116389,4.293,113.953,-2.288,17.568,-14.152,1014.552,1015.000,-70.000,210.000,24.727,-0.05139,0.33630,0.38776,28
116413,4.293,113.953,-2.288,17.324,-13.786,1015.040,2047.500,105.000,595.000,24.719,-0.05139,0.33649,0.38940,28
116447,4.293,113.953,-2.288,17.202,-12.932,1015.284,3272.500,-122.500,1102.500,24.719,-0.05096,0.33551,0.38892,28
116471,4.293,113.953,-2.288,17.324,-12.200,1015.040,1855.000,-245.000,787.500,24.695,-0.05133,0.33539,0.38934,28
116500,4.293,113.953,-2.288,17.568,-11.468,1014.552,507.500,-682.500,490.000,24.734,-0.05145,0.33606,0.38873,28
116524,4.293,113.953,-2.288,17.812,-11.224,1014.674,315.000,-857.500,-35.000,24.734,-0.05157,0.33594,0.38959,28
116558,4.293,113.953,-2.288,18.178,-11.102,1015.162,1190.000,-1837.500,-245.000,24.734,-0.05133,0.33551,0.38879,28
116582,4.293,113.953,-2.288,18.910,-11.346,1015.650,2415.000,-1277.500,-752.500,24.680,-0.05127,0.33502,0.38934,28
116611,4.293,113.953,-2.288,17.812,-10.004,1014.674,1977.500,-175.000,87.500,24.719,-0.05157,0.33472,0.38928,28
116635,4.293,113.953,-2.288,18.178,-9.760,1014.674,1662.500,-245.000,-157.500,24.750,-0.05200,0.33472,0.39026,28
116669,4.293,113.953,-2.288,18.300,-8.784,1014.796,1855.000,-455.000,455.000,24.734,-0.05176,0.33411,0.38971,28
116693,4.293,113.953,-2.288,18.544,-8.052,1015.040,1715.000,-805.000,1277.500,24.734,-0.05151,0.33398,0.39014,28
116722,4.293,113.953,-2.288,18.300,-7.198,1014.796,1435.000,-770.000,1627.500,24.711,-0.05060,0.33380,0.38977,28
116746,4.294,113.953,-2.288,13.298,-5.124,1016.748,4252.500,1435.000,6335.000,24.711,-0.05066,0.33313,0.39056,28
116775,4.294,113.953,-2.288,19.032,-6.222,1014.552,2257.500,-70.000,1190.000,24.734,-0.05078,0.33282,0.39075,28
116799,4.294,113.953,-2.288,19.398,-5.856,1014.552,1890.000,-875.000,717.500,24.711,-0.05072,0.33276,0.39111,28
116835,4.294,113.953,-2.288,19.276,-4.880,1014.552,1120.000,-857.500,315.000,24.742,-0.05029,0.33264,0.39014,28
116859,4.294,113.953,-2.288,19.032,-4.392,1014.674,1347.500,-612.500,525.000,24.742,-0.05011,0.33209,0.39075,28
116888,4.294,113.953,-2.288,19.276,-3.904,1014.308,787.500,-770.000,-105.000,24.742,-0.05060,0.33276,0.39044,28
116912,4.294,113.953,-2.288,19.642,-3.416,1014.064,87.500,-997.500,-297.500,24.719,-0.05054,0.33258,0.39050,28
116947,4.294,113.953,-2.288,19.520,-3.172,1014.308,1032.500,-525.000,-402.500,24.734,-0.05090,0.33252,0.39069,28
116971,4.294,113.953,-2.288,19.520,-2.806,1014.186,752.500,-455.000,-315.000,24.742,-0.05084,0.33240,0.39069,28
117000,4.291,113.953,-2.288,19.520,-2.562,1014.308,892.500,-332.500,-332.500,24.680,-0.05096,0.33246,0.39075,28
117024,4.291,113.953,-2.288,19.764,-2.196,1014.186,682.500,-402.500,-262.500,24.703,-0.05072,0.33221,0.39136,28
117058,4.291,113.953,-2.288,19.886,-1.586,1014.064,-192.500,-805.000,-507.500,24.719,-0.05090,0.33270,0.39032,28
117082,4.291,113.953,-2.288,19.520,-1.464,1014.308,437.500,-437.500,-157.500,24.727,-0.05090,0.33240,0.39124,28
117111,4.291,113.953,-2.288,19.520,-1.342,1014.308,822.500,-385.000,-52.500,24.734,-0.05066,0.33234,0.39008,28
117135,4.291,113.953,-2.288,19.642,-1.220,1014.064,70.000,-472.500,-350.000,24.727,-0.05109,0.33221,0.39117,28
117164,4.291,113.953,-2.288,19.642,-0.976,1013.942,-490.000,-647.500,-402.500,24.727,-0.05109,0.33270,0.39032,28
117188,4.291,113.953,-2.288,19.520,-0.976,1014.186,52.500,-595.000,-350.000,24.742,-0.05054,0.33246,0.39075,28
117222,4.291,113.953,-2.288,19.276,-0.976,1014.674,1085.000,-525.000,210.000,24.711,-0.05060,0.33270,0.39008,28
117246,4.293,113.953,-2.288,19.276,-0.976,1014.308,490.000,-122.500,157.500,24.719,-0.05060,0.33252,0.39081,28
117275,4.293,113.953,-2.288,19.642,-0.976,1014.308,350.000,-455.000,175.000,24.711,-0.05048,0.33228,0.38983,28
117299,4.293,113.953,-2.288,19.764,-1.098,1014.430,385.000,-612.500,-140.000,24.703,-0.05029,0.33282,0.39062,28
117333,4.293,113.953,-2.288,19.398,-0.976,1014.430,1120.000,262.500,560.000,24.734,-0.05035,0.33215,0.39014,28
117357,4.293,113.953,-2.288,18.910,-0.976,1013.576,-892.500,1557.500,507.500,24.742,-0.04980,0.33270,0.39050,28
117386,4.293,113.953,-2.288,17.812,-1.342,1014.918,2975.000,3850.000,1715.000,24.727,-0.04852,0.33228,0.39044,28
117410,4.293,113.953,-2.288,15.494,-0.244,1013.454,105.000,5775.000,2922.500,24.711,-0.04736,0.33209,0.39050,28
117446,4.293,113.953,-2.288,17.446,-0.732,1013.576,-1312.500,3902.500,-17.500,24.719,-0.04700,0.33270,0.38977,28
117470,4.293,113.953,-2.288,17.080,-0.732,1014.552,-105.000,1557.500,577.500,24.734,-0.04620,0.33289,0.39044,28
117499,4.293,113.953,-2.288,16.104,-0.854,1014.430,-2205.000,-1575.000,507.500,24.758,-0.04626,0.33295,0.38965,28
117523,4.293,113.953,-2.288,15.128,-0.976,1013.698,-3867.500,-525.000,-577.500,24.727,-0.04645,0.33374,0.38947,28
117557,4.293,113.953,-2.288,13.664,-1.586,1014.064,-3710.000,280.000,-367.500,24.750,-0.04602,0.33557,0.38818,28
117581,4.293,113.953,-2.288,13.054,-2.440,1014.552,-1592.500,-35.000,105.000,24.719,-0.04633,0.33575,0.38879,28
117610,4.293,113.953,-2.288,12.688,-3.904,1015.284,1085.000,-140.000,227.500,24.719,-0.04572,0.33484,0.38818,28
117634,4.293,113.953,-2.288,12.688,-4.636,1016.016,4340.000,-455.000,0.000,24.750,-0.04626,0.33484,0.38916,28
117663,4.293,113.953,-2.288,11.956,-4.392,1015.040,525.000,-1102.500,682.500,24.727,-0.04608,0.33502,0.38898,28
117687,4.293,113.953,-2.288,11.346,-4.148,1013.820,-3500.000,682.500,1837.500,24.742,-0.04535,0.33636,0.38770,28
117721,4.293,113.953,-2.288,10.980,-7.564,1012.234,-19617.500,542.500,1732.500,24.727,-0.04437,0.34119,0.38513,28
117745,4.293,113.953,-2.288,10.980,-7.076,1012.112,-17010.000,1225.000,1085.000,24.766,-0.04413,0.34436,0.38385,28
117775,4.293,113.953,-2.288,8.784,-9.760,1012.112,-15732.500,1365.000,-52.500,24.734,-0.04401,0.34607,0.38116,28
117799,4.293,113.953,-2.288,7.930,-14.640,1016.260,1225.000,595.000,-227.500,24.742,-0.04437,0.34473,0.38245,28
117833,4.293,113.953,-2.288,8.906,-20.740,1022.604,22312.500,1977.500,-5022.500,24.766,-0.04413,0.33875,0.38654,28
117857,4.293,113.953,-2.288,8.296,-27.816,1022.604,22697.500,6492.500,-11865.000,24.734,-0.04413,0.33612,0.38812,28
117886,4.293,113.953,-2.288,5.124,-30.988,1019.554,7997.500,3482.500,-6807.500,24.742,-0.04407,0.33490,0.38800,28
117910,4.293,113.953,-2.288,2.440,-30.256,1040.782,6527.500,-25130.000,6247.500,24.750,-0.05231,0.33032,0.38995,28
117944,4.293,113.953,-2.288,12.932,-35.624,1095.926,62982.500,-102987.500,39305.000,24.742,-0.07050,0.31531,0.39716,28
117968,4.293,113.953,-2.288,7.808,-33.794,1085.434,54110.000,-66272.500,15960.000,24.773,-0.07953,0.30750,0.40240,28
117997,4.294,113.953,-2.288,16.470,-24.888,1088.484,48965.000,-44467.500,1032.500,24.727,-0.08728,0.29816,0.40637,28
118021,4.294,113.953,-2.288,19.154,-17.812,1069.452,22225.000,3482.500,-6037.500,24.758,-0.08344,0.29700,0.40741,28
118055,4.294,113.953,-2.288,31.964,0.610,1069.452,-472.500,29050.000,3955.000,24.758,-0.07739,0.29736,0.40771,28
118079,4.294,113.953,-2.288,57.584,13.420,1065.304,-8960.000,15942.500,-7752.500,24.750,-0.07672,0.29932,0.40747,28
118108,4.294,113.953,-2.288,65.026,23.302,1060.180,-19425.000,-10185.000,-595.000,24.750,-0.07776,0.30200,0.40533,28
118132,4.294,113.953,-2.288,65.514,36.478,1067.744,-8330.000,-595.000,5722.500,24.793,-0.07520,0.30334,0.40564,28
118166,4.294,113.953,-2.288,71.736,49.898,1060.668,-2572.500,21455.000,3517.500,24.742,-0.07019,0.30231,0.40576,28
